{
 "adab": {
  "label": "Anti-Drug Antibody Analysis Dataset",
  "structure": "One or more records per subject per analysis parameter per analysis timepoint",
  "n_rows": 6430,
  "columns": {
   "STUDYID": {
    "label": "Study Identifier",
    "type": "String",
    "mandatory": "Yes",
    "role": null
   },
   "USUBJID": {
    "label": "Unique Subject Identifier",
    "type": "String",
    "mandatory": "Yes",
    "role": null
   },
   "SUBJID": {
    "label": "Subject Identifier for the Study",
    "type": "String",
    "mandatory": "Yes",
    "role": null
   },
   "SITEID": {
    "label": "Study Site Identifier",
    "type": "String",
    "mandatory": "No",
    "role": null
   },
   "ASEQ": {
    "label": "Analysis Sequence Number",
    "type": "Int32",
    "mandatory": "No",
    "role": null
   },
   "REGION1": {
    "label": "Geographic Region 1",
    "type": "String",
    "mandatory": "No",
    "role": null
   },
   "COUNTRY": {
    "label": "Country",
    "type": "String",
    "mandatory": "No",
    "role": null
   },
   "ETHNIC": {
    "label": "Ethnicity",
    "type": "String",
    "mandatory": "No",
    "role": null
   },
   "AGE": {
    "label": "Age",
    "type": "Float64",
    "mandatory": "No",
    "role": null
   },
   "AGEU": {
    "label": "Age Units",
    "type": "String",
    "mandatory": "No",
    "role": null
   },
   "SEX": {
    "label": "Sex",
    "type": "String",
    "mandatory": "No",
    "role": null
   },
   "RACE": {
    "label": "Race",
    "type": "String",
    "mandatory": "No",
    "role": null
   },
   "SAFFL": {
    "label": "Safety Population Flag",
    "type": "String",
    "mandatory": "No",
    "role": null
   },
   "TRT01P": {
    "label": "Description of Planned Arm",
    "type": "String",
    "mandatory": "No",
    "role": null
   },
   "TRT01A": {
    "label": "Description of Actual Arm",
    "type": "String",
    "mandatory": "No",
    "role": null
   },
   "TRTSDTM": {
    "label": "Datetime of First Exposure to Treatment",
    "type": "Datetime",
    "mandatory": "No",
    "role": null
   },
   "TRTSDT": {
    "label": "Date of First Exposure to Treatment",
    "type": "Date",
    "mandatory": "No",
    "role": null
   },
   "TRTEDTM": {
    "label": "Datetime of Last Exposure to Treatment",
    "type": "Datetime",
    "mandatory": "No",
    "role": null
   },
   "TRTEDT": {
    "label": "Date of Last Exposure to Treatment",
    "type": "Date",
    "mandatory": "No",
    "role": null
   },
   "ISSEQ": {
    "label": "Sequence Number",
    "type": "Int32",
    "mandatory": "No",
    "role": null
   },
   "ISTESTCD": {
    "label": "Immunogenicity Test/Exam Short Name",
    "type": "String",
    "mandatory": "No",
    "role": null
   },
   "ISTEST": {
    "label": "Immunogenicity Test or Examination Name",
    "type": "String",
    "mandatory": "No",
    "role": null
   },
   "ISCAT": {
    "label": "Category for Immunogenicity Test",
    "type": "String",
    "mandatory": "No",
    "role": null
   },
   "ISBDAGNT": {
    "label": "Binding Agent",
    "type": "String",
    "mandatory": "No",
    "role": null
   },
   "ISSTRESC": {
    "label": "Character Result/Finding in Std Format",
    "type": "String",
    "mandatory": "No",
    "role": null
   },
   "ISSTRESN": {
    "label": "Numeric Results/Findings in Std. Units",
    "type": "Float64",
    "mandatory": "No",
    "role": null
   },
   "ISSTRESU": {
    "label": "Standard Units",
    "type": "String",
    "mandatory": "No",
    "role": null
   },
   "ISSTAT": {
    "label": "Completion Status",
    "type": "String",
    "mandatory": "No",
    "role": null
   },
   "ISREASND": {
    "label": "Reason Not Done",
    "type": "String",
    "mandatory": "No",
    "role": null
   },
   "ISSPEC": {
    "label": "Specimen Type",
    "type": "String",
    "mandatory": "No",
    "role": null
   },
   "DTL": {
    "label": "Drug Tolerance Level",
    "type": "Float64",
    "mandatory": "No",
    "role": null
   },
   "MRT": {
    "label": "Minimum Reportable Titer",
    "type": "Float64",
    "mandatory": "No",
    "role": null
   },
   "VISITNUM": {
    "label": "Visit Number",
    "type": "Float64",
    "mandatory": "No",
    "role": null
   },
   "VISIT": {
    "label": "Visit Name",
    "type": "String",
    "mandatory": "No",
    "role": null
   },
   "VISITDY": {
    "label": "Planned Study Day of Visit",
    "type": "Float64",
    "mandatory": "No",
    "role": null
   },
   "EPOCH": {
    "label": "Epoch",
    "type": "String",
    "mandatory": "No",
    "role": null
   },
   "ISDTC": {
    "label": "Date/Time of Collection",
    "type": "String",
    "mandatory": "No",
    "role": null
   },
   "ISDY": {
    "label": "Study Day of Visit/Collection/Exam",
    "type": "Float64",
    "mandatory": "No",
    "role": null
   },
   "ISTPT": {
    "label": "Planned Time Point Name",
    "type": "String",
    "mandatory": "No",
    "role": null
   },
   "ISTPTNUM": {
    "label": "Planned Time Point Number",
    "type": "Float64",
    "mandatory": "No",
    "role": null
   },
   "PARAM": {
    "label": "Parameter",
    "type": "String",
    "mandatory": "No",
    "role": null
   },
   "PARAMCD": {
    "label": "Parameter Code",
    "type": "String",
    "mandatory": "No",
    "role": null
   },
   "PARCAT1": {
    "label": "Parameter Category 1",
    "type": "String",
    "mandatory": "No",
    "role": null
   },
   "AVAL": {
    "label": "Analysis Value",
    "type": "Float64",
    "mandatory": "No",
    "role": null
   },
   "AVALC": {
    "label": "Analysis Value (C)",
    "type": "String",
    "mandatory": "No",
    "role": null
   },
   "AVALU": {
    "label": "Analysis Value Unit",
    "type": "String",
    "mandatory": "No",
    "role": null
   },
   "BASETYPE": {
    "label": "Baseline Type",
    "type": "String",
    "mandatory": "No",
    "role": null
   },
   "BASE": {
    "label": "Baseline Value",
    "type": "Float64",
    "mandatory": "No",
    "role": null
   },
   "CHG": {
    "label": "Change from Baseline",
    "type": "Float64",
    "mandatory": "No",
    "role": null
   },
   "DTYPE": {
    "label": "Derivation Type",
    "type": "String",
    "mandatory": "No",
    "role": null
   },
   "ADTM": {
    "label": "Analysis Datetime",
    "type": "Datetime",
    "mandatory": "No",
    "role": null
   },
   "ADT": {
    "label": "Analysis Date",
    "type": "Date",
    "mandatory": "No",
    "role": null
   },
   "ADY": {
    "label": "Analysis Relative Day",
    "type": "Float64",
    "mandatory": "No",
    "role": null
   },
   "ATMF": {
    "label": "Analysis Time Imputation Flag",
    "type": "String",
    "mandatory": "No",
    "role": null
   },
   "AVISIT": {
    "label": "Analysis Visit",
    "type": "String",
    "mandatory": "No",
    "role": null
   },
   "AVISITN": {
    "label": "Analysis Visit (N)",
    "type": "Float64",
    "mandatory": "No",
    "role": null
   },
   "ATPT": {
    "label": "Analysis Timepoint",
    "type": "String",
    "mandatory": "No",
    "role": null
   },
   "APHASE": {
    "label": "Phase",
    "type": "String",
    "mandatory": "No",
    "role": null
   },
   "APHASEN": {
    "label": "Phase (N)",
    "type": "Int32",
    "mandatory": "No",
    "role": null
   },
   "APERIOD": {
    "label": "Period",
    "type": "Float64",
    "mandatory": "No",
    "role": null
   },
   "APERIODC": {
    "label": "Period (C)",
    "type": "String",
    "mandatory": "No",
    "role": null
   },
   "FANLDTM": {
    "label": "First Datetime of Dose for Analyte",
    "type": "Datetime",
    "mandatory": "No",
    "role": null
   },
   "FANLDT": {
    "label": "First Date of Dose for Analyte",
    "type": "Date",
    "mandatory": "No",
    "role": null
   },
   "FANLTM": {
    "label": "First Time of Dose for Analyte",
    "type": "Time",
    "mandatory": "No",
    "role": null
   },
   "FANLTMF": {
    "label": "First Time of Dose for Analyte ImputeFL",
    "type": "String",
    "mandatory": "No",
    "role": null
   },
   "NFRLT": {
    "label": "Nom. Rel. Time from Analyte First Dose",
    "type": "Float64",
    "mandatory": "No",
    "role": null
   },
   "AFRLT": {
    "label": "Act. Rel. Time from Analyte First Dose",
    "type": "Float64",
    "mandatory": "No",
    "role": null
   },
   "FRLTU": {
    "label": "Rel. Time from First Dose Unit",
    "type": "String",
    "mandatory": "No",
    "role": null
   },
   "ABLFL": {
    "label": "Baseline Record Flag",
    "type": "String",
    "mandatory": "No",
    "role": null
   },
   "ADABLPFL": {
    "label": "Baseline ADA Eval. Param-Level Flag",
    "type": "String",
    "mandatory": "No",
    "role": null
   },
   "ADPBLPFL": {
    "label": "Post-Baseline ADA Eval. Param-Level Flag",
    "type": "String",
    "mandatory": "No",
    "role": null
   },
   "ADAFL": {
    "label": "ADA Population Flag",
    "type": "String",
    "mandatory": "No",
    "role": null
   }
  }
 },
 "adae": {
  "label": "Adverse Events Analysis",
  "structure": "One record per subject per adverse event",
  "n_rows": 1191,
  "columns": {
   "STUDYID": {
    "label": "Study Identifier",
    "type": "String",
    "mandatory": "Yes",
    "role": "OCCDS Identifier Variables"
   },
   "USUBJID": {
    "label": "Unique Subject Identifier",
    "type": "String",
    "mandatory": "Yes",
    "role": "OCCDS Identifier Variables"
   },
   "SUBJID": {
    "label": "Subject Identifier for the Study",
    "type": "String",
    "mandatory": "No",
    "role": "OCCDS Identifier Variables"
   },
   "SITEID": {
    "label": "Study Site Identifier",
    "type": "String",
    "mandatory": "No",
    "role": "OCCDS Identifier Variables"
   },
   "COUNTRY": {
    "label": "Country",
    "type": "String",
    "mandatory": "No",
    "role": null
   },
   "DOMAIN": {
    "label": "Domain Abbreviation",
    "type": "String",
    "mandatory": "No",
    "role": null
   },
   "RFSTDTC": {
    "label": "Subject Reference Start Date/Time",
    "type": "String",
    "mandatory": "No",
    "role": null
   },
   "RFENDTC": {
    "label": "Subject Reference End Date/Time",
    "type": "String",
    "mandatory": "No",
    "role": null
   },
   "RFXSTDTC": {
    "label": "Date/Time of First Study Treatment",
    "type": "String",
    "mandatory": "No",
    "role": null
   },
   "RFXENDTC": {
    "label": "Date/Time of Last Study Treatment",
    "type": "String",
    "mandatory": "No",
    "role": null
   },
   "RFPENDTC": {
    "label": "Date/Time of End of Participation",
    "type": "String",
    "mandatory": "No",
    "role": null
   },
   "SCRFDT": {
    "label": "Screen Failure Date",
    "type": "Date",
    "mandatory": "No",
    "role": null
   },
   "FRVDT": {
    "label": "Final Retrieval Visit Date",
    "type": "Date",
    "mandatory": "No",
    "role": null
   },
   "DTHDTC": {
    "label": "Date/Time of Death",
    "type": "String",
    "mandatory": "No",
    "role": null
   },
   "DTHADY": {
    "label": "Relative Day of Death",
    "type": "Float64",
    "mandatory": "No",
    "role": null
   },
   "DTHFL": {
    "label": "Subject Death Flag",
    "type": "String",
    "mandatory": "No",
    "role": null
   },
   "LDDTHELD": {
    "label": "Elapsed Days from Last Dose to Death",
    "type": "Float64",
    "mandatory": "No",
    "role": null
   },
   "LDDTHGR1": {
    "label": "Last Dose to Death - Days Elapsed Grp 1",
    "type": "String",
    "mandatory": "No",
    "role": null
   },
   "DTH30FL": {
    "label": "Death Within 30 Days of Last Trt Flag",
    "type": "String",
    "mandatory": "No",
    "role": null
   },
   "DTHA30FL": {
    "label": "Death After 30 Days from Last Trt Flag",
    "type": "String",
    "mandatory": "No",
    "role": null
   },
   "DTHDOM": {
    "label": "Domain for Date of Death Collection",
    "type": "String",
    "mandatory": "No",
    "role": null
   },
   "DTHB30FL": {
    "label": "Death Within 30 Days of First Trt Flag",
    "type": "String",
    "mandatory": "No",
    "role": null
   },
   "REGION1": {
    "label": "Geographic Region 1",
    "type": "String",
    "mandatory": "No",
    "role": null
   },
   "DMDTC": {
    "label": "Date/Time of Collection",
    "type": "String",
    "mandatory": "No",
    "role": null
   },
   "DMDY": {
    "label": "Study Day of Collection",
    "type": "Float64",
    "mandatory": "No",
    "role": null
   },
   "AGE": {
    "label": "Age",
    "type": "Float64",
    "mandatory": "No",
    "role": "ADSL Subject Demographics Variables"
   },
   "AGEU": {
    "label": "Age Units",
    "type": "String",
    "mandatory": "No",
    "role": "ADSL Subject Demographics Variables"
   },
   "AGEGR1": {
    "label": "Pooled Age Group 1",
    "type": "String",
    "mandatory": "No",
    "role": null
   },
   "SEX": {
    "label": "Sex",
    "type": "String",
    "mandatory": "No",
    "role": "ADSL Subject Demographics Variables"
   },
   "RACE": {
    "label": "Race",
    "type": "String",
    "mandatory": "No",
    "role": "ADSL Subject Demographics Variables"
   },
   "RACEGR1": {
    "label": "Pooled Race Group 1",
    "type": "String",
    "mandatory": "No",
    "role": null
   },
   "ETHNIC": {
    "label": "Ethnicity",
    "type": "String",
    "mandatory": "No",
    "role": null
   },
   "SAFFL": {
    "label": "Safety Population Flag",
    "type": "String",
    "mandatory": "No",
    "role": "ADSL Population Indicator Variables"
   },
   "ARM": {
    "label": "Description of Planned Arm",
    "type": "String",
    "mandatory": "No",
    "role": "ADSL Treatment Variables"
   },
   "ARMCD": {
    "label": "Planned Arm Code",
    "type": "String",
    "mandatory": "No",
    "role": null
   },
   "ACTARM": {
    "label": "Description of Actual Arm",
    "type": "String",
    "mandatory": "No",
    "role": "ADSL Treatment Variables"
   },
   "ACTARMCD": {
    "label": "Actual Arm Code",
    "type": "String",
    "mandatory": "No",
    "role": null
   },
   "TRT01P": {
    "label": "Planned Treatment for Period 01",
    "type": "String",
    "mandatory": "No",
    "role": null
   },
   "TRT01A": {
    "label": "Actual Treatment for Period 01",
    "type": "String",
    "mandatory": "No",
    "role": null
   },
   "TRTSDT": {
    "label": "Date of First Exposure to Treatment",
    "type": "Date",
    "mandatory": "No",
    "role": "ADSL Treatment Timing Variables"
   },
   "TRTSDTM": {
    "label": "Datetime of First Exposure to Treatment",
    "type": "Datetime",
    "mandatory": "No",
    "role": "ADSL Treatment Timing Variables"
   },
   "TRTSTMF": {
    "label": "Time of First Exposure Imput. Flag",
    "type": "String",
    "mandatory": "No",
    "role": "ADSL Treatment Timing Variables"
   },
   "TRTEDT": {
    "label": "Date of Last Exposure to Treatment",
    "type": "Date",
    "mandatory": "No",
    "role": "ADSL Treatment Timing Variables"
   },
   "TRTEDTM": {
    "label": "Datetime of Last Exposure to Treatment",
    "type": "Datetime",
    "mandatory": "No",
    "role": "ADSL Treatment Timing Variables"
   },
   "TRTETMF": {
    "label": "Time of Last Exposure Imput. Flag",
    "type": "String",
    "mandatory": "No",
    "role": "ADSL Treatment Timing Variables"
   },
   "EOSSTT": {
    "label": "End of Study Status",
    "type": "String",
    "mandatory": "No",
    "role": "ADSL Subject-Level Trial Experience Variables"
   },
   "EOSDT": {
    "label": "End of Study Date",
    "type": "Date",
    "mandatory": "No",
    "role": "ADSL Subject-Level Trial Experience Variables"
   },
   "RFICDTC": {
    "label": "Date/Time of Informed Consent",
    "type": "String",
    "mandatory": "No",
    "role": null
   },
   "RANDDT": {
    "label": "Date of Randomization",
    "type": "Date",
    "mandatory": "No",
    "role": "ADSL Subject-Level Trial Experience Variables"
   },
   "LSTALVDT": {
    "label": "Date Last Known Alive",
    "type": "Date",
    "mandatory": "No",
    "role": "ADSL Subject-Level Trial Experience Variables"
   },
   "TRTDURD": {
    "label": "Total Treatment Duration (Days)",
    "type": "Float64",
    "mandatory": "No",
    "role": "ADSL Subject-Level Trial Experience Variables"
   },
   "DTHDT": {
    "label": "Date of Death",
    "type": "Date",
    "mandatory": "No",
    "role": "ADSL Subject-Level Trial Experience Variables"
   },
   "DTHDTF": {
    "label": "Date of Death Imputation Flag",
    "type": "String",
    "mandatory": "No",
    "role": "ADSL Subject-Level Trial Experience Variables"
   },
   "DTHCAUS": {
    "label": "Cause of Death",
    "type": "String",
    "mandatory": "No",
    "role": null
   },
   "DTHCGR1": {
    "label": "Cause of Death Reason 1",
    "type": "String",
    "mandatory": "No",
    "role": null
   },
   "AESEQ": {
    "label": "Sequence Number",
    "type": "Float64",
    "mandatory": "Yes",
    "role": "OCCDS Identifier Variables"
   },
   "AETERM": {
    "label": "Reported Term for the Adverse Event",
    "type": "String",
    "mandatory": "Yes",
    "role": "MedDRA Dictionary Coding Variables"
   },
   "AEDECOD": {
    "label": "Dictionary-Derived Term",
    "type": "String",
    "mandatory": "No",
    "role": "MedDRA Dictionary Coding Variables"
   },
   "AEBODSYS": {
    "label": "Body System or Organ Class",
    "type": "String",
    "mandatory": "No",
    "role": "MedDRA Dictionary Coding Variables"
   },
   "AEBDSYCD": {
    "label": "Body System or Organ Class Code",
    "type": "Float64",
    "mandatory": "No",
    "role": "MedDRA Dictionary Coding Variables"
   },
   "AELLT": {
    "label": "Lowest Level Term",
    "type": "String",
    "mandatory": "No",
    "role": "MedDRA Dictionary Coding Variables"
   },
   "AELLTCD": {
    "label": "Lowest Level Term Code",
    "type": "Float64",
    "mandatory": "No",
    "role": "MedDRA Dictionary Coding Variables"
   },
   "AEPTCD": {
    "label": "Preferred Term Code",
    "type": "Float64",
    "mandatory": "No",
    "role": "MedDRA Dictionary Coding Variables"
   },
   "AEHLT": {
    "label": "High Level Term",
    "type": "String",
    "mandatory": "No",
    "role": "MedDRA Dictionary Coding Variables"
   },
   "AEHLTCD": {
    "label": "High Level Term Code",
    "type": "Float64",
    "mandatory": "No",
    "role": "MedDRA Dictionary Coding Variables"
   },
   "AEHLGT": {
    "label": "High Level Group Term",
    "type": "String",
    "mandatory": "No",
    "role": "MedDRA Dictionary Coding Variables"
   },
   "AEHLGTCD": {
    "label": "High Level Group Term Code",
    "type": "Float64",
    "mandatory": "No",
    "role": "MedDRA Dictionary Coding Variables"
   },
   "AESOC": {
    "label": "Primary System Organ Class",
    "type": "String",
    "mandatory": "No",
    "role": "MedDRA Dictionary Coding Variables"
   },
   "AESOCCD": {
    "label": "Primary System Organ Class Code",
    "type": "Float64",
    "mandatory": "No",
    "role": "MedDRA Dictionary Coding Variables"
   },
   "AESTDTC": {
    "label": "Start Date/Time of Adverse Event",
    "type": "String",
    "mandatory": "No",
    "role": "Timing Variables"
   },
   "ASTDT": {
    "label": "Analysis Start Date",
    "type": "Date",
    "mandatory": "No",
    "role": "Timing Variables"
   },
   "ASTDTM": {
    "label": "Analysis Start Date/Time",
    "type": "Datetime",
    "mandatory": "No",
    "role": "Timing Variables"
   },
   "ASTDTF": {
    "label": "Analysis Start Date Imputation Flag",
    "type": "String",
    "mandatory": "No",
    "role": "Timing Variables"
   },
   "ASTTMF": {
    "label": "Analysis Start Time Imputation Flag",
    "type": "String",
    "mandatory": "No",
    "role": "Timing Variables"
   },
   "AEENDTC": {
    "label": "End Date/Time of Adverse Event",
    "type": "String",
    "mandatory": "No",
    "role": "Timing Variables"
   },
   "AENDT": {
    "label": "Analysis End Date",
    "type": "Date",
    "mandatory": "No",
    "role": "Timing Variables"
   },
   "AENDTM": {
    "label": "Analysis End Date/Time",
    "type": "Datetime",
    "mandatory": "No",
    "role": "Timing Variables"
   },
   "AENDTF": {
    "label": "Analysis End Date Imputation Flag",
    "type": "String",
    "mandatory": "No",
    "role": "Timing Variables"
   },
   "AENTMF": {
    "label": "Analysis End Time Imputation Flag",
    "type": "String",
    "mandatory": "No",
    "role": "Timing Variables"
   },
   "ASTDY": {
    "label": "Analysis Start Relative Day",
    "type": "Float64",
    "mandatory": "No",
    "role": "Timing Variables"
   },
   "AESTDY": {
    "label": "Study Day of Start of Adverse Event",
    "type": "Float64",
    "mandatory": "No",
    "role": "Timing Variables"
   },
   "AENDY": {
    "label": "Analysis End Relative Day",
    "type": "Float64",
    "mandatory": "No",
    "role": "Timing Variables"
   },
   "AEENDY": {
    "label": "Study Day of End of Adverse Event",
    "type": "Float64",
    "mandatory": "No",
    "role": "Timing Variables"
   },
   "ADURN": {
    "label": "Analysis Duration (N)",
    "type": "Float64",
    "mandatory": "No",
    "role": "Timing Variables"
   },
   "ADURU": {
    "label": "Analysis Duration Units",
    "type": "String",
    "mandatory": "No",
    "role": "Timing Variables"
   },
   "TRTEMFL": {
    "label": "Treatment Emergent Analysis Flag",
    "type": "String",
    "mandatory": "No",
    "role": "Adverse Events Indicator Variables"
   },
   "AOCCIFL": {
    "label": "1st Max Sev./Int. Occurrence Flag",
    "type": "String",
    "mandatory": "No",
    "role": "OCCDS Occurrence Flag Variables"
   },
   "AESER": {
    "label": "Serious Event",
    "type": "String",
    "mandatory": "Yes",
    "role": "Adverse Event Descriptive Variables"
   },
   "AESDTH": {
    "label": "Results in Death",
    "type": "String",
    "mandatory": "No",
    "role": null
   },
   "AESLIFE": {
    "label": "Is Life Threatening",
    "type": "String",
    "mandatory": "No",
    "role": null
   },
   "AESHOSP": {
    "label": "Requires or Prolongs Hospitalization",
    "type": "String",
    "mandatory": "No",
    "role": null
   },
   "AESDISAB": {
    "label": "Persist or Signif Disability/Incapacity",
    "type": "String",
    "mandatory": "No",
    "role": null
   },
   "AESCONG": {
    "label": "Congenital Anomaly or Birth Defect",
    "type": "String",
    "mandatory": "No",
    "role": null
   },
   "AESEV": {
    "label": "Severity/Intensity",
    "type": "String",
    "mandatory": "No",
    "role": "Adverse Event Descriptive Variables"
   },
   "ASEV": {
    "label": "Analysis Severity/Intensity",
    "type": "String",
    "mandatory": "No",
    "role": "Adverse Event Descriptive Variables"
   },
   "ASEVN": {
    "label": "Analysis Severity/Intensity (N)",
    "type": "Int32",
    "mandatory": "No",
    "role": "Adverse Event Descriptive Variables"
   },
   "AEREL": {
    "label": "Causality",
    "type": "String",
    "mandatory": "No",
    "role": "Adverse Event Descriptive Variables"
   },
   "AREL": {
    "label": "Analysis Causality",
    "type": "String",
    "mandatory": "No",
    "role": "Adverse Event Descriptive Variables"
   },
   "AEACN": {
    "label": "Action Taken with Study Treatment",
    "type": "String",
    "mandatory": "No",
    "role": "Adverse Event Descriptive Variables"
   },
   "AESPID": {
    "label": "Sponsor-Defined Identifier",
    "type": "String",
    "mandatory": "No",
    "role": null
   },
   "AEOUT": {
    "label": "Outcome of Adverse Event",
    "type": "String",
    "mandatory": "No",
    "role": null
   },
   "AESCAN": {
    "label": "Involves Cancer",
    "type": "String",
    "mandatory": "No",
    "role": null
   },
   "AESOD": {
    "label": "Occurred with Overdose",
    "type": "String",
    "mandatory": "No",
    "role": null
   },
   "AEDTC": {
    "label": "Date/Time of Collection",
    "type": "String",
    "mandatory": "No",
    "role": null
   },
   "LDOSEDTM": {
    "label": "End Date/Time of Last Dose",
    "type": "Datetime",
    "mandatory": "No",
    "role": null
   },
   "DOSEON": {
    "label": "Treatment Dose",
    "type": "Float64",
    "mandatory": "No",
    "role": null
   },
   "DOSEU": {
    "label": "Treatment Dose Unit",
    "type": "String",
    "mandatory": "No",
    "role": null
   }
  }
 },
 "adapet_neuro": {
  "label": "Amyloid PET Scan Analysis Dataset",
  "structure": "One or more records per subject per analysis parameter per analysis timepoint",
  "n_rows": 83,
  "columns": {
   "STUDYID": {
    "label": "Study Identifier",
    "type": "String",
    "mandatory": "Yes",
    "role": "Identifier Variables for BDS Datasets"
   },
   "USUBJID": {
    "label": "Unique Subject Identifier",
    "type": "String",
    "mandatory": "Yes",
    "role": "Identifier Variables for BDS Datasets"
   },
   "DOMAIN": {
    "label": "Domain Abbreviation",
    "type": "String",
    "mandatory": "No",
    "role": null
   },
   "ASEQ": {
    "label": "Analysis Sequence Number",
    "type": "Int32",
    "mandatory": "No",
    "role": "Identifier Variables for BDS Datasets"
   },
   "TRT01P": {
    "label": "Planned Treatment for Period 01",
    "type": "String",
    "mandatory": "No",
    "role": null
   },
   "TRT01A": {
    "label": "Actual Treatment for Period 01",
    "type": "String",
    "mandatory": "No",
    "role": null
   },
   "TRTSDT": {
    "label": "Date of First Exposure to Treatment",
    "type": "Date",
    "mandatory": "No",
    "role": "ADSL Treatment Timing Variables"
   },
   "TRTEDT": {
    "label": "Date of Last Exposure to Treatment",
    "type": "Date",
    "mandatory": "No",
    "role": "ADSL Treatment Timing Variables"
   },
   "ADT": {
    "label": "Analysis Date",
    "type": "Date",
    "mandatory": "No",
    "role": "Timing Variables for BDS Datasets"
   },
   "ADY": {
    "label": "Analysis Relative Day",
    "type": "Float64",
    "mandatory": "No",
    "role": "Timing Variables for BDS Datasets"
   },
   "AVISIT": {
    "label": "Analysis Visit",
    "type": "String",
    "mandatory": "No",
    "role": "Timing Variables for BDS Datasets"
   },
   "AVISITN": {
    "label": "Analysis Visit (N)",
    "type": "Float64",
    "mandatory": "No",
    "role": "Timing Variables for BDS Datasets"
   },
   "PARAM": {
    "label": "Parameter",
    "type": "String",
    "mandatory": "Yes",
    "role": "Analysis Parameter Variables for BDS Datasets"
   },
   "PARAMCD": {
    "label": "Parameter Code",
    "type": "String",
    "mandatory": "Yes",
    "role": "Analysis Parameter Variables for BDS Datasets"
   },
   "AVAL": {
    "label": "Analysis Value",
    "type": "Float64",
    "mandatory": "No",
    "role": "Analysis Parameter Variables for BDS Datasets"
   },
   "AVALC": {
    "label": "Analysis Value (C)",
    "type": "String",
    "mandatory": "No",
    "role": "Analysis Parameter Variables for BDS Datasets"
   },
   "AVALU": {
    "label": "Analysis Value Unit",
    "type": "String",
    "mandatory": "No",
    "role": null
   },
   "BASE": {
    "label": "Baseline Value",
    "type": "Float64",
    "mandatory": "No",
    "role": "Analysis Parameter Variables for BDS Datasets"
   },
   "BASEC": {
    "label": "Baseline Value (C)",
    "type": "String",
    "mandatory": "No",
    "role": "Analysis Parameter Variables for BDS Datasets"
   },
   "BASETYPE": {
    "label": "Baseline Type",
    "type": "String",
    "mandatory": "No",
    "role": null
   },
   "CHG": {
    "label": "Change from Baseline",
    "type": "Float64",
    "mandatory": "No",
    "role": "Analysis Parameter Variables for BDS Datasets"
   },
   "PCHG": {
    "label": "Percent Change from Baseline",
    "type": "Float64",
    "mandatory": "No",
    "role": "Analysis Parameter Variables for BDS Datasets"
   },
   "CRIT1": {
    "label": "Analysis Criterion 1",
    "type": "String",
    "mandatory": "No",
    "role": null
   },
   "CRIT1FL": {
    "label": "Criterion 1 Evaluation Result Flag",
    "type": "String",
    "mandatory": "No",
    "role": null
   },
   "ABLFL": {
    "label": "Baseline Record Flag",
    "type": "String",
    "mandatory": "No",
    "role": "Flag Variables for BDS Datasets"
   },
   "ANL01FL": {
    "label": "Analysis Flag 01",
    "type": "String",
    "mandatory": "No",
    "role": null
   },
   "ANL02FL": {
    "label": "Analysis Flag 02",
    "type": "String",
    "mandatory": "No",
    "role": null
   },
   "ONTRTFL": {
    "label": "On Treatment Record Flag",
    "type": "String",
    "mandatory": "No",
    "role": null
   },
   "NVSEQ": {
    "label": "Sequence Number",
    "type": "Int32",
    "mandatory": "No",
    "role": null
   },
   "NVLNKID": {
    "label": "Link ID",
    "type": "Float64",
    "mandatory": "No",
    "role": null
   },
   "NVTESTCD": {
    "label": "Short Name of Nervous System Test",
    "type": "String",
    "mandatory": "No",
    "role": null
   },
   "NVTEST": {
    "label": "Name of Nervous System Test",
    "type": "String",
    "mandatory": "No",
    "role": null
   },
   "NVCAT": {
    "label": "Category for Nervous System Test",
    "type": "String",
    "mandatory": "No",
    "role": null
   },
   "NVLOC": {
    "label": "Location Used for the Measurement",
    "type": "String",
    "mandatory": "No",
    "role": null
   },
   "NVNAM": {
    "label": "Vendor Name",
    "type": "String",
    "mandatory": "No",
    "role": null
   },
   "NVORRES": {
    "label": "Result or Finding in Original Units",
    "type": "String",
    "mandatory": "No",
    "role": null
   },
   "NVORRESU": {
    "label": "Original Units",
    "type": "String",
    "mandatory": "No",
    "role": null
   },
   "NVSTRESC": {
    "label": "Character Result/Finding in Std Format",
    "type": "String",
    "mandatory": "No",
    "role": null
   },
   "NVSTRESN": {
    "label": "Numeric Result/Finding in Standard Units",
    "type": "Float64",
    "mandatory": "No",
    "role": null
   },
   "NVSTRESU": {
    "label": "Standard Units",
    "type": "String",
    "mandatory": "No",
    "role": null
   },
   "NVMETHOD": {
    "label": "Method of Test or Examination",
    "type": "String",
    "mandatory": "No",
    "role": null
   },
   "NVLOBXFL": {
    "label": "Last Observation Before Exposure Flag",
    "type": "String",
    "mandatory": "No",
    "role": null
   },
   "REFREG": {
    "label": "Reference Region",
    "type": "String",
    "mandatory": "No",
    "role": null
   },
   "AGTRT": {
    "label": "Reported Agent Name",
    "type": "String",
    "mandatory": "No",
    "role": null
   },
   "AGCAT": {
    "label": "Category for Agent",
    "type": "String",
    "mandatory": "No",
    "role": null
   },
   "VISITNUM": {
    "label": "Visit Number",
    "type": "Float64",
    "mandatory": "No",
    "role": null
   },
   "VISIT": {
    "label": "Visit Name",
    "type": "String",
    "mandatory": "No",
    "role": null
   },
   "NVDTC": {
    "label": "Date/Time of Collection",
    "type": "String",
    "mandatory": "No",
    "role": null
   },
   "NVDY": {
    "label": "Study Day of Visit/Collection/Exam",
    "type": "Float64",
    "mandatory": "No",
    "role": null
   }
  }
 },
 "adbcva_ophtha": {
  "label": "Best Corrected Visual Acuity Analysis",
  "structure": "One or more records per subject per analysis parameter per analysis timepoint",
  "n_rows": 7672,
  "columns": {
   "STUDYID": {
    "label": "Study Identifier",
    "type": "String",
    "mandatory": "Yes",
    "role": "Identifier Variables for BDS Datasets"
   },
   "USUBJID": {
    "label": "Unique Subject Identifier",
    "type": "String",
    "mandatory": "Yes",
    "role": "Identifier Variables for BDS Datasets"
   },
   "DOMAIN": {
    "label": "Domain Abbreviation",
    "type": "String",
    "mandatory": "No",
    "role": null
   },
   "TRT01P": {
    "label": "Planned Treatment for Period 01",
    "type": "String",
    "mandatory": "No",
    "role": null
   },
   "TRT01A": {
    "label": "Actual Treatment for Period 01",
    "type": "String",
    "mandatory": "No",
    "role": null
   },
   "TRTSDT": {
    "label": "Date of First Exposure to Treatment",
    "type": "Date",
    "mandatory": "No",
    "role": "ADSL Treatment Timing Variables"
   },
   "TRTEDT": {
    "label": "Date of Last Exposure to Treatment",
    "type": "Date",
    "mandatory": "No",
    "role": "ADSL Treatment Timing Variables"
   },
   "ADT": {
    "label": "Analysis Date",
    "type": "Date",
    "mandatory": "No",
    "role": "Timing Variables for BDS Datasets"
   },
   "ADY": {
    "label": "Analysis Relative Day",
    "type": "Float64",
    "mandatory": "No",
    "role": "Timing Variables for BDS Datasets"
   },
   "AVISIT": {
    "label": "Analysis Visit",
    "type": "String",
    "mandatory": "No",
    "role": "Timing Variables for BDS Datasets"
   },
   "AVISITN": {
    "label": "Analysis Visit (N)",
    "type": "Float64",
    "mandatory": "No",
    "role": "Timing Variables for BDS Datasets"
   },
   "ATPT": {
    "label": "Analysis Timepoint",
    "type": "String",
    "mandatory": "No",
    "role": "Timing Variables for BDS Datasets"
   },
   "ATPTN": {
    "label": "Analysis Timepoint (N)",
    "type": "Float64",
    "mandatory": "No",
    "role": "Timing Variables for BDS Datasets"
   },
   "PARAM": {
    "label": "Parameter",
    "type": "String",
    "mandatory": "Yes",
    "role": "Analysis Parameter Variables for BDS Datasets"
   },
   "PARAMCD": {
    "label": "Parameter Code",
    "type": "String",
    "mandatory": "Yes",
    "role": "Analysis Parameter Variables for BDS Datasets"
   },
   "AVAL": {
    "label": "Analysis Value",
    "type": "Float64",
    "mandatory": "No",
    "role": "Analysis Parameter Variables for BDS Datasets"
   },
   "AVALC": {
    "label": "Analysis Value (C)",
    "type": "String",
    "mandatory": "No",
    "role": "Analysis Parameter Variables for BDS Datasets"
   },
   "AVALU": {
    "label": "Analysis Value Unit",
    "type": "String",
    "mandatory": "No",
    "role": null
   },
   "AVALCAT1": {
    "label": "Analysis Value Category 1",
    "type": "String",
    "mandatory": "No",
    "role": null
   },
   "AVALCA1N": {
    "label": "Analysis Value Category 1 (N)",
    "type": "Float64",
    "mandatory": "No",
    "role": null
   },
   "BASE": {
    "label": "Baseline Value",
    "type": "Float64",
    "mandatory": "No",
    "role": "Analysis Parameter Variables for BDS Datasets"
   },
   "BASEC": {
    "label": "Baseline Value (C)",
    "type": "String",
    "mandatory": "No",
    "role": "Analysis Parameter Variables for BDS Datasets"
   },
   "BASETYPE": {
    "label": "Baseline Type",
    "type": "String",
    "mandatory": "No",
    "role": "Analysis Parameter Variables for BDS Datasets"
   },
   "CHG": {
    "label": "Change from Baseline",
    "type": "Float64",
    "mandatory": "No",
    "role": "Analysis Parameter Variables for BDS Datasets"
   },
   "PCHG": {
    "label": "Percent Change from Baseline",
    "type": "Float64",
    "mandatory": "No",
    "role": "Analysis Parameter Variables for BDS Datasets"
   },
   "CRIT1": {
    "label": "Analysis Criterion 1",
    "type": "String",
    "mandatory": "No",
    "role": null
   },
   "CRIT1FL": {
    "label": "Criterion 1 Evaluation Result Flag",
    "type": "String",
    "mandatory": "No",
    "role": null
   },
   "CRIT2": {
    "label": "Analysis Criterion 2",
    "type": "String",
    "mandatory": "No",
    "role": null
   },
   "CRIT2FL": {
    "label": "Criterion 2 Evaluation Result Flag",
    "type": "String",
    "mandatory": "No",
    "role": null
   },
   "CRIT3": {
    "label": "Analysis Criterion 3",
    "type": "String",
    "mandatory": "No",
    "role": null
   },
   "CRIT3FL": {
    "label": "Criterion 3 Evaluation Result Flag",
    "type": "String",
    "mandatory": "No",
    "role": null
   },
   "CRIT4": {
    "label": "Analysis Criterion 4",
    "type": "String",
    "mandatory": "No",
    "role": null
   },
   "CRIT4FL": {
    "label": "Criterion 4 Evaluation Result Flag",
    "type": "String",
    "mandatory": "No",
    "role": null
   },
   "CRIT5": {
    "label": "Analysis Criterion 5",
    "type": "String",
    "mandatory": "No",
    "role": null
   },
   "CRIT5FL": {
    "label": "Criterion 5 Evaluation Result Flag",
    "type": "String",
    "mandatory": "No",
    "role": null
   },
   "CRIT6": {
    "label": "Analysis Criterion 6",
    "type": "String",
    "mandatory": "No",
    "role": null
   },
   "CRIT6FL": {
    "label": "Criterion 6 Evaluation Result Flag",
    "type": "String",
    "mandatory": "No",
    "role": null
   },
   "CRIT7": {
    "label": "Analysis Criterion 7",
    "type": "String",
    "mandatory": "No",
    "role": null
   },
   "CRIT7FL": {
    "label": "Criterion 7 Evaluation Result Flag",
    "type": "String",
    "mandatory": "No",
    "role": null
   },
   "CRIT8": {
    "label": "Analysis Criterion 8",
    "type": "String",
    "mandatory": "No",
    "role": null
   },
   "CRIT8FL": {
    "label": "Criterion 8 Evaluation Result Flag",
    "type": "String",
    "mandatory": "No",
    "role": null
   },
   "DTYPE": {
    "label": "Derivation Type",
    "type": "String",
    "mandatory": "No",
    "role": "Analysis Descriptor Variables for BDS Datasets"
   },
   "ABLFL": {
    "label": "Baseline Record Flag",
    "type": "String",
    "mandatory": "No",
    "role": "Flag Variables for BDS Datasets"
   },
   "ANL01FL": {
    "label": "Analysis Flag 01",
    "type": "String",
    "mandatory": "No",
    "role": null
   },
   "ANL02FL": {
    "label": "Analysis Flag 02",
    "type": "String",
    "mandatory": "No",
    "role": null
   },
   "ONTRTFL": {
    "label": "On Treatment Record Flag",
    "type": "String",
    "mandatory": "No",
    "role": "Flag Variables for BDS Datasets"
   },
   "OESEQ": {
    "label": "Sequence Number",
    "type": "Int32",
    "mandatory": "No",
    "role": null
   },
   "OECAT": {
    "label": "Category for Ophthalmic Test or Exam",
    "type": "String",
    "mandatory": "No",
    "role": null
   },
   "OESCAT": {
    "label": "Subcategory for Ophthalmic Test or Exam",
    "type": "String",
    "mandatory": "No",
    "role": null
   },
   "OEDTC": {
    "label": "Date/Time of Collection",
    "type": "String",
    "mandatory": "No",
    "role": null
   },
   "VISIT": {
    "label": "Visit Name",
    "type": "String",
    "mandatory": "No",
    "role": null
   },
   "VISITNUM": {
    "label": "Visit Number",
    "type": "Float64",
    "mandatory": "No",
    "role": null
   },
   "VISITDY": {
    "label": "Planned Study Day of Visit",
    "type": "Float64",
    "mandatory": "No",
    "role": null
   },
   "OESTRESN": {
    "label": "Numeric Result/Finding in Standard Units",
    "type": "Float64",
    "mandatory": "No",
    "role": null
   },
   "OESTRESC": {
    "label": "Character Result/Finding in Std Format",
    "type": "String",
    "mandatory": "No",
    "role": null
   },
   "OEORRES": {
    "label": "Result or Finding in Original Units",
    "type": "String",
    "mandatory": "No",
    "role": null
   },
   "OETEST": {
    "label": "Name of Ophthalmic Test or Exam",
    "type": "String",
    "mandatory": "No",
    "role": null
   },
   "OETESTCD": {
    "label": "Short Name of Ophthalmic Test or Exam",
    "type": "String",
    "mandatory": "No",
    "role": null
   },
   "OETSTDTL": {
    "label": "Ophthalmic Test or Exam Detail",
    "type": "String",
    "mandatory": "No",
    "role": null
   },
   "OELAT": {
    "label": "Laterality",
    "type": "String",
    "mandatory": "No",
    "role": null
   },
   "OELOC": {
    "label": "Location Used for the Measurement",
    "type": "String",
    "mandatory": "No",
    "role": null
   },
   "OEDY": {
    "label": "Study Day of Visit/Collection/Exam",
    "type": "Float64",
    "mandatory": "No",
    "role": null
   },
   "OEMETHOD": {
    "label": "Method of Test or Examination",
    "type": "String",
    "mandatory": "No",
    "role": null
   },
   "OEORRESU": {
    "label": "Original Units",
    "type": "String",
    "mandatory": "No",
    "role": null
   },
   "OESTRESU": {
    "label": "Standard Units",
    "type": "String",
    "mandatory": "No",
    "role": null
   },
   "OESTAT": {
    "label": "Completion Status",
    "type": "String",
    "mandatory": "No",
    "role": null
   },
   "OETPT": {
    "label": "Planned Time Point Name",
    "type": "String",
    "mandatory": "No",
    "role": null
   },
   "OETPTNUM": {
    "label": "Planned Time Point Number",
    "type": "Float64",
    "mandatory": "No",
    "role": null
   },
   "STUDYEYE": {
    "label": "Study Eye Location",
    "type": "String",
    "mandatory": "No",
    "role": null
   },
   "AFEYE": {
    "label": "Affected Eye",
    "type": "String",
    "mandatory": "No",
    "role": null
   },
   "WORS01FL": {
    "label": "Worst Post Baseline Obs",
    "type": "String",
    "mandatory": "No",
    "role": null
   }
  }
 },
 "adce_vaccine": {
  "label": "Clinical Events Analysis for Vaccine",
  "structure": null,
  "n_rows": 44,
  "columns": {
   "STUDYID": {
    "label": "Study Identifier",
    "type": "String",
    "mandatory": "No",
    "role": null
   },
   "USUBJID": {
    "label": "Unique Subject Identifier",
    "type": "String",
    "mandatory": "No",
    "role": null
   },
   "SUBJID": {
    "label": "Subject Identifier for the Study",
    "type": "String",
    "mandatory": "No",
    "role": null
   },
   "SITEID": {
    "label": "Study Site Identifier",
    "type": "Float64",
    "mandatory": "No",
    "role": null
   },
   "COUNTRY": {
    "label": "Country",
    "type": "String",
    "mandatory": "No",
    "role": null
   },
   "DOMAIN": {
    "label": "Domain Abbreviation",
    "type": "String",
    "mandatory": "No",
    "role": null
   },
   "ASEQ": {
    "label": "Analysis Sequence Number",
    "type": "Int32",
    "mandatory": "No",
    "role": null
   },
   "AGE": {
    "label": "Age",
    "type": "Float64",
    "mandatory": "No",
    "role": null
   },
   "AGEU": {
    "label": "Age Units",
    "type": "String",
    "mandatory": "No",
    "role": null
   },
   "SEX": {
    "label": "Sex",
    "type": "String",
    "mandatory": "No",
    "role": null
   },
   "RACE": {
    "label": "Race",
    "type": "String",
    "mandatory": "No",
    "role": null
   },
   "ETHNIC": {
    "label": "Ethnicity",
    "type": "String",
    "mandatory": "No",
    "role": null
   },
   "TRT01P": {
    "label": "Planned Treatment for Period 01",
    "type": "String",
    "mandatory": "No",
    "role": null
   },
   "TRT01A": {
    "label": "Actual Treatment for Period 01",
    "type": "String",
    "mandatory": "No",
    "role": null
   },
   "TRTSDT": {
    "label": "Date of First Exposure to Treatment",
    "type": "Date",
    "mandatory": "No",
    "role": null
   },
   "TRTEDT": {
    "label": "Date of Last Exposure to Treatment",
    "type": "Date",
    "mandatory": "No",
    "role": null
   },
   "APERSDT": {
    "label": "Period Start Date",
    "type": "Date",
    "mandatory": "No",
    "role": null
   },
   "APEREDT": {
    "label": "Period End Date",
    "type": "Date",
    "mandatory": "No",
    "role": null
   },
   "APERSTDY": {
    "label": "Analysis Sub-period Start Relative Day",
    "type": "Float64",
    "mandatory": "No",
    "role": null
   },
   "CESEQ": {
    "label": "Sequence Number",
    "type": "Float64",
    "mandatory": "No",
    "role": null
   },
   "CETERM": {
    "label": "Reported Term for the Clinical Event",
    "type": "String",
    "mandatory": "No",
    "role": null
   },
   "CEDECOD": {
    "label": "Dictionary-Derived Term",
    "type": "String",
    "mandatory": "No",
    "role": null
   },
   "CECAT": {
    "label": "Category for the Clinical Event",
    "type": "String",
    "mandatory": "No",
    "role": null
   },
   "CESCAT": {
    "label": "Subcategory for the Clinical Event",
    "type": "String",
    "mandatory": "No",
    "role": null
   },
   "CESTDTC": {
    "label": "Start Date/Time of Clinical Event",
    "type": "String",
    "mandatory": "No",
    "role": null
   },
   "ASTDT": {
    "label": "Analysis Start Date",
    "type": "Date",
    "mandatory": "No",
    "role": null
   },
   "CEENDTC": {
    "label": "End Date/Time of Clinical Event",
    "type": "String",
    "mandatory": "No",
    "role": null
   },
   "AENDT": {
    "label": "Analysis End Date",
    "type": "Date",
    "mandatory": "No",
    "role": null
   },
   "ASTDY": {
    "label": "Analysis Start Relative Day",
    "type": "Float64",
    "mandatory": "No",
    "role": null
   },
   "AENDY": {
    "label": "Analysis End Relative Day",
    "type": "Float64",
    "mandatory": "No",
    "role": null
   },
   "ADURN": {
    "label": "Analysis Duration (N)",
    "type": "Float64",
    "mandatory": "No",
    "role": null
   },
   "ADURU": {
    "label": "Analysis Duration Units",
    "type": "String",
    "mandatory": "No",
    "role": null
   },
   "CEDUR": {
    "label": "Duration of Clinical Event",
    "type": "String",
    "mandatory": "No",
    "role": null
   },
   "APERIOD": {
    "label": "Period",
    "type": "Int32",
    "mandatory": "No",
    "role": null
   },
   "CEOCCUR": {
    "label": "Clinical Event Occurrence",
    "type": "String",
    "mandatory": "No",
    "role": null
   },
   "CEPRESP": {
    "label": "Clinical Event Pre-specified",
    "type": "String",
    "mandatory": "No",
    "role": null
   },
   "AOCC01FL": {
    "label": "Event Occurrence Flag",
    "type": "String",
    "mandatory": "No",
    "role": null
   },
   "ASEV": {
    "label": "Analysis Severity/Intensity",
    "type": "String",
    "mandatory": "No",
    "role": null
   },
   "ASEVN": {
    "label": "Analysis Severity/Intensity (N)",
    "type": "Int32",
    "mandatory": "No",
    "role": null
   },
   "AREL": {
    "label": "Analysis Causality",
    "type": "String",
    "mandatory": "No",
    "role": null
   },
   "CELNKID": {
    "label": "Link ID",
    "type": "String",
    "mandatory": "No",
    "role": null
   },
   "CELNKGRP": {
    "label": "Link Group ID",
    "type": "String",
    "mandatory": "No",
    "role": null
   },
   "CELAT": {
    "label": "Laterality",
    "type": "String",
    "mandatory": "No",
    "role": null
   },
   "CELOC": {
    "label": "Location of Event",
    "type": "String",
    "mandatory": "No",
    "role": null
   },
   "CESEV": {
    "label": "Severity/Intensity",
    "type": "String",
    "mandatory": "No",
    "role": null
   },
   "CEREL": {
    "label": "Causality",
    "type": "String",
    "mandatory": "No",
    "role": null
   },
   "CEOUT": {
    "label": "Outcome of Event",
    "type": "String",
    "mandatory": "No",
    "role": null
   },
   "EPOCH": {
    "label": "Epoch",
    "type": "String",
    "mandatory": "No",
    "role": null
   },
   "CEDTC": {
    "label": "Date/Time of Event Collection",
    "type": "String",
    "mandatory": "No",
    "role": null
   },
   "CETPT": {
    "label": "Planned Time Point Name",
    "type": "String",
    "mandatory": "No",
    "role": null
   },
   "CETPTNUM": {
    "label": "Planned Time Point Number",
    "type": "Float64",
    "mandatory": "No",
    "role": null
   },
   "CETPTREF": {
    "label": "Time Point Reference",
    "type": "String",
    "mandatory": "No",
    "role": null
   },
   "CERFTDTC": {
    "label": "Date/Time of Reference Time Point",
    "type": "String",
    "mandatory": "No",
    "role": null
   },
   "CEEVINTX": {
    "label": "Evaluation Interval Text",
    "type": "String",
    "mandatory": "No",
    "role": null
   },
   "CESTAT": {
    "label": "Completion Status",
    "type": "String",
    "mandatory": "No",
    "role": null
   },
   "CEREASND": {
    "label": "Reason Clinical Event Not Collected",
    "type": "String",
    "mandatory": "No",
    "role": null
   }
  }
 },
 "adcm": {
  "label": "Concomitant Medications Analysis",
  "structure": null,
  "n_rows": 7510,
  "columns": {
   "STUDYID": {
    "label": "Study Identifier",
    "type": "String",
    "mandatory": "No",
    "role": null
   },
   "USUBJID": {
    "label": "Unique Subject Identifier",
    "type": "String",
    "mandatory": "No",
    "role": null
   },
   "SUBJID": {
    "label": "Subject Identifier for the Study",
    "type": "String",
    "mandatory": "No",
    "role": null
   },
   "SITEID": {
    "label": "Study Site Identifier",
    "type": "String",
    "mandatory": "No",
    "role": null
   },
   "COUNTRY": {
    "label": "Country",
    "type": "String",
    "mandatory": "No",
    "role": null
   },
   "DOMAIN": {
    "label": "Domain Abbreviation",
    "type": "String",
    "mandatory": "No",
    "role": null
   },
   "RFSTDTC": {
    "label": "Subject Reference Start Date/Time",
    "type": "String",
    "mandatory": "No",
    "role": null
   },
   "RFENDTC": {
    "label": "Subject Reference End Date/Time",
    "type": "String",
    "mandatory": "No",
    "role": null
   },
   "RFXSTDTC": {
    "label": "Date/Time of First Study Treatment",
    "type": "String",
    "mandatory": "No",
    "role": null
   },
   "RFXENDTC": {
    "label": "Date/Time of Last Study Treatment",
    "type": "String",
    "mandatory": "No",
    "role": null
   },
   "RFPENDTC": {
    "label": "Date/Time of End of Participation",
    "type": "String",
    "mandatory": "No",
    "role": null
   },
   "SCRFDT": {
    "label": "Screen Failure Date",
    "type": "Date",
    "mandatory": "No",
    "role": null
   },
   "FRVDT": {
    "label": "Final Retrieval Visit Date",
    "type": "Date",
    "mandatory": "No",
    "role": null
   },
   "DTHDTC": {
    "label": "Date/Time of Death",
    "type": "String",
    "mandatory": "No",
    "role": null
   },
   "DTHADY": {
    "label": "Relative Day of Death",
    "type": "Float64",
    "mandatory": "No",
    "role": null
   },
   "DTHFL": {
    "label": "Subject Death Flag",
    "type": "String",
    "mandatory": "No",
    "role": null
   },
   "LDDTHELD": {
    "label": "Elapsed Days from Last Dose to Death",
    "type": "Float64",
    "mandatory": "No",
    "role": null
   },
   "LDDTHGR1": {
    "label": "Last Dose to Death - Days Elapsed Grp 1",
    "type": "String",
    "mandatory": "No",
    "role": null
   },
   "DTH30FL": {
    "label": "Death Within 30 Days of Last Trt Flag",
    "type": "String",
    "mandatory": "No",
    "role": null
   },
   "DTHA30FL": {
    "label": "Death After 30 Days from Last Trt Flag",
    "type": "String",
    "mandatory": "No",
    "role": null
   },
   "DTHDOM": {
    "label": "Domain for Date of Death Collection",
    "type": "String",
    "mandatory": "No",
    "role": null
   },
   "DTHB30FL": {
    "label": "Death Within 30 Days of First Trt Flag",
    "type": "String",
    "mandatory": "No",
    "role": null
   },
   "REGION1": {
    "label": "Geographic Region 1",
    "type": "String",
    "mandatory": "No",
    "role": null
   },
   "DMDTC": {
    "label": "Date/Time of Collection",
    "type": "String",
    "mandatory": "No",
    "role": null
   },
   "DMDY": {
    "label": "Study Day of Collection",
    "type": "Float64",
    "mandatory": "No",
    "role": null
   },
   "AGE": {
    "label": "Age",
    "type": "Float64",
    "mandatory": "No",
    "role": null
   },
   "AGEU": {
    "label": "Age Units",
    "type": "String",
    "mandatory": "No",
    "role": null
   },
   "AGEGR1": {
    "label": "Pooled Age Group 1",
    "type": "String",
    "mandatory": "No",
    "role": null
   },
   "SEX": {
    "label": "Sex",
    "type": "String",
    "mandatory": "No",
    "role": null
   },
   "RACE": {
    "label": "Race",
    "type": "String",
    "mandatory": "No",
    "role": null
   },
   "RACEGR1": {
    "label": "Pooled Race Group 1",
    "type": "String",
    "mandatory": "No",
    "role": null
   },
   "ETHNIC": {
    "label": "Ethnicity",
    "type": "String",
    "mandatory": "No",
    "role": null
   },
   "SAFFL": {
    "label": "Safety Population Flag",
    "type": "String",
    "mandatory": "No",
    "role": null
   },
   "ARM": {
    "label": "Description of Planned Arm",
    "type": "String",
    "mandatory": "No",
    "role": null
   },
   "ARMCD": {
    "label": "Planned Arm Code",
    "type": "String",
    "mandatory": "No",
    "role": null
   },
   "ACTARM": {
    "label": "Description of Actual Arm",
    "type": "String",
    "mandatory": "No",
    "role": null
   },
   "ACTARMCD": {
    "label": "Actual Arm Code",
    "type": "String",
    "mandatory": "No",
    "role": null
   },
   "TRTP": {
    "label": "Planned Treatment",
    "type": "String",
    "mandatory": "No",
    "role": null
   },
   "TRTA": {
    "label": "Actual Treatment",
    "type": "String",
    "mandatory": "No",
    "role": null
   },
   "TRT01P": {
    "label": "Planned Treatment for Period 01",
    "type": "String",
    "mandatory": "No",
    "role": null
   },
   "TRT01A": {
    "label": "Actual Treatment for Period 01",
    "type": "String",
    "mandatory": "No",
    "role": null
   },
   "TRTSDT": {
    "label": "Date of First Exposure to Treatment",
    "type": "Date",
    "mandatory": "No",
    "role": null
   },
   "TRTSDTM": {
    "label": "Datetime of First Exposure to Treatment",
    "type": "Datetime",
    "mandatory": "No",
    "role": null
   },
   "TRTSTMF": {
    "label": "Time of First Exposure Imput. Flag",
    "type": "String",
    "mandatory": "No",
    "role": null
   },
   "TRTEDT": {
    "label": "Date of Last Exposure to Treatment",
    "type": "Date",
    "mandatory": "No",
    "role": null
   },
   "TRTEDTM": {
    "label": "Datetime of Last Exposure to Treatment",
    "type": "Datetime",
    "mandatory": "No",
    "role": null
   },
   "TRTETMF": {
    "label": "Treatment End Datetime Imput Flag",
    "type": "String",
    "mandatory": "No",
    "role": null
   },
   "APHASE": {
    "label": "Phase",
    "type": "String",
    "mandatory": "No",
    "role": null
   },
   "APHASEN": {
    "label": "Description of Phase N",
    "type": "Float64",
    "mandatory": "No",
    "role": null
   },
   "EOSSTT": {
    "label": "End of Study Status",
    "type": "String",
    "mandatory": "No",
    "role": null
   },
   "EOSDT": {
    "label": "End of Study Date",
    "type": "Date",
    "mandatory": "No",
    "role": null
   },
   "RFICDTC": {
    "label": "Date/Time of Informed Consent",
    "type": "String",
    "mandatory": "No",
    "role": null
   },
   "RANDDT": {
    "label": "Date of Randomization",
    "type": "Date",
    "mandatory": "No",
    "role": null
   },
   "LSTALVDT": {
    "label": "Date Last Known Alive",
    "type": "Date",
    "mandatory": "No",
    "role": null
   },
   "TRTDURD": {
    "label": "Total Treatment Duration (Days)",
    "type": "Float64",
    "mandatory": "No",
    "role": null
   },
   "DTHDT": {
    "label": "Date of Death",
    "type": "Date",
    "mandatory": "No",
    "role": null
   },
   "DTHDTF": {
    "label": "Date of Death Imputation Flag",
    "type": "String",
    "mandatory": "No",
    "role": "ADSL Subject-Level Trial Experience Variables"
   },
   "DTHCAUS": {
    "label": "Cause of Death",
    "type": "String",
    "mandatory": "No",
    "role": null
   },
   "DTHCGR1": {
    "label": "Cause of Death Reason 1",
    "type": "String",
    "mandatory": "No",
    "role": null
   },
   "CMSEQ": {
    "label": "Sequence Number",
    "type": "Float64",
    "mandatory": "No",
    "role": null
   },
   "CMDECOD": {
    "label": "Standardized Medication Name",
    "type": "String",
    "mandatory": "No",
    "role": null
   },
   "CMTRT": {
    "label": "Reported Name of Drug, Med, or Therapy",
    "type": "String",
    "mandatory": "No",
    "role": null
   },
   "CMCLAS": {
    "label": "Medication Class",
    "type": "String",
    "mandatory": "No",
    "role": null
   },
   "CMSTDTC": {
    "label": "Start Date/Time of Medication",
    "type": "String",
    "mandatory": "No",
    "role": null
   },
   "ASTDT": {
    "label": "Analysis Start Date",
    "type": "Date",
    "mandatory": "No",
    "role": null
   },
   "ASTDTM": {
    "label": "Analysis Start Date/Time",
    "type": "Datetime",
    "mandatory": "No",
    "role": null
   },
   "ASTDTF": {
    "label": "Analysis Start Date Imputation Flag",
    "type": "String",
    "mandatory": "No",
    "role": null
   },
   "ASTTMF": {
    "label": "Analysis Start Time Imputation Flag",
    "type": "String",
    "mandatory": "No",
    "role": null
   },
   "CMENDTC": {
    "label": "End Date/Time of Medication",
    "type": "String",
    "mandatory": "No",
    "role": null
   },
   "AENDT": {
    "label": "Analysis End Date",
    "type": "Date",
    "mandatory": "No",
    "role": null
   },
   "AENDTM": {
    "label": "Analysis End Date/Time",
    "type": "Datetime",
    "mandatory": "No",
    "role": null
   },
   "AENDTF": {
    "label": "Analysis End Date Imputation Flag",
    "type": "String",
    "mandatory": "No",
    "role": null
   },
   "AENTMF": {
    "label": "Analysis End Time Imputation Flag",
    "type": "String",
    "mandatory": "No",
    "role": null
   },
   "ASTDY": {
    "label": "Analysis Start Relative Day",
    "type": "Float64",
    "mandatory": "No",
    "role": null
   },
   "CMSTDY": {
    "label": "Study Day of Start of Medication",
    "type": "Float64",
    "mandatory": "No",
    "role": null
   },
   "AENDY": {
    "label": "Analysis End Relative Day",
    "type": "Float64",
    "mandatory": "No",
    "role": null
   },
   "CMENDY": {
    "label": "Study Day of End of Medication",
    "type": "Float64",
    "mandatory": "No",
    "role": null
   },
   "ADURN": {
    "label": "Analysis Duration (N)",
    "type": "Float64",
    "mandatory": "No",
    "role": null
   },
   "ADURU": {
    "label": "Analysis Duration Units",
    "type": "String",
    "mandatory": "No",
    "role": null
   },
   "ANL01FL": {
    "label": "Analysis Flag 01",
    "type": "String",
    "mandatory": "No",
    "role": null
   },
   "ONTRTFL": {
    "label": "On Treatment Record Flag",
    "type": "String",
    "mandatory": "No",
    "role": null
   },
   "PREFL": {
    "label": "Pre-treatment Flag",
    "type": "String",
    "mandatory": "No",
    "role": null
   },
   "FUPFL": {
    "label": "Follow-up Flag",
    "type": "String",
    "mandatory": "No",
    "role": null
   },
   "AOCCPFL": {
    "label": "1st Occurrence of Preferred Term Flag",
    "type": "String",
    "mandatory": "No",
    "role": null
   },
   "CMINDC": {
    "label": "Indication",
    "type": "String",
    "mandatory": "No",
    "role": null
   },
   "CMDOSE": {
    "label": "Dose per Administration",
    "type": "Float64",
    "mandatory": "No",
    "role": null
   },
   "CMDOSU": {
    "label": "Dose Units",
    "type": "String",
    "mandatory": "No",
    "role": null
   },
   "CMDOSFRQ": {
    "label": "Dosing Frequency per Interval",
    "type": "String",
    "mandatory": "No",
    "role": null
   },
   "CMROUTE": {
    "label": "Route of Administration",
    "type": "String",
    "mandatory": "No",
    "role": null
   },
   "CMSPID": {
    "label": "Sponsor-Defined Identifier",
    "type": "String",
    "mandatory": "No",
    "role": null
   },
   "CMENRTPT": {
    "label": "End Relative to Reference Time Point",
    "type": "String",
    "mandatory": "No",
    "role": null
   },
   "VISITNUM": {
    "label": "Visit Number",
    "type": "Float64",
    "mandatory": "No",
    "role": null
   },
   "VISIT": {
    "label": "Visit Name",
    "type": "String",
    "mandatory": "No",
    "role": null
   },
   "VISITDY": {
    "label": "Planned Study Day of Visit",
    "type": "Float64",
    "mandatory": "No",
    "role": null
   },
   "CMDTC": {
    "label": "Date/Time of Collection",
    "type": "String",
    "mandatory": "No",
    "role": null
   }
  }
 },
 "adcoeq_metabolic": {
  "label": "Questionnaires Analysis for Metabolic",
  "structure": "One or more records per subject per analysis parameter per analysis timepoint",
  "n_rows": 1110,
  "columns": {
   "STUDYID": {
    "label": "Study Identifier",
    "type": "String",
    "mandatory": "Yes",
    "role": null
   },
   "USUBJID": {
    "label": "Unique Subject Identifier",
    "type": "String",
    "mandatory": "Yes",
    "role": null
   },
   "SUBJID": {
    "label": "Subject Identifier for the Study",
    "type": "String",
    "mandatory": "No",
    "role": null
   },
   "SITEID": {
    "label": "Study Site Identifier",
    "type": "String",
    "mandatory": "No",
    "role": null
   },
   "COUNTRY": {
    "label": "Country",
    "type": "String",
    "mandatory": "No",
    "role": null
   },
   "DOMAIN": {
    "label": "Domain Abbreviation",
    "type": "String",
    "mandatory": "No",
    "role": null
   },
   "RFSTDTC": {
    "label": "Subject Reference Start Date/Time",
    "type": "String",
    "mandatory": "No",
    "role": null
   },
   "RFENDTC": {
    "label": "Subject Reference End Date/Time",
    "type": "String",
    "mandatory": "No",
    "role": null
   },
   "RFXSTDTC": {
    "label": "Date/Time of First Study Treatment",
    "type": "String",
    "mandatory": "No",
    "role": null
   },
   "RFXENDTC": {
    "label": "Date/Time of Last Study Treatment",
    "type": "String",
    "mandatory": "No",
    "role": null
   },
   "RFPENDTC": {
    "label": "Date/Time of End of Participation",
    "type": "String",
    "mandatory": "No",
    "role": null
   },
   "SCRFDT": {
    "label": "Screen Failure Date",
    "type": "Date",
    "mandatory": "No",
    "role": null
   },
   "FRVDT": {
    "label": "Final Retrieval Visit Date",
    "type": "Date",
    "mandatory": "No",
    "role": null
   },
   "DTHDTC": {
    "label": "Date/Time of Death",
    "type": "String",
    "mandatory": "No",
    "role": null
   },
   "DTHADY": {
    "label": "Relative Day of Death",
    "type": "Float64",
    "mandatory": "No",
    "role": null
   },
   "DTHFL": {
    "label": "Subject Death Flag",
    "type": "String",
    "mandatory": "No",
    "role": null
   },
   "LDDTHELD": {
    "label": "Elapsed Days from Last Dose to Death",
    "type": "Float64",
    "mandatory": "No",
    "role": null
   },
   "LDDTHGR1": {
    "label": "Last Dose to Death - Days Elapsed Grp 1",
    "type": "String",
    "mandatory": "No",
    "role": null
   },
   "DTH30FL": {
    "label": "Death Within 30 Days of Last Trt Flag",
    "type": "String",
    "mandatory": "No",
    "role": null
   },
   "DTHA30FL": {
    "label": "Death After 30 Days from Last Trt Flag",
    "type": "String",
    "mandatory": "No",
    "role": null
   },
   "DTHDOM": {
    "label": "Domain for Date of Death Collection",
    "type": "String",
    "mandatory": "No",
    "role": null
   },
   "DTHB30FL": {
    "label": "Death Within 30 Days of First Trt Flag",
    "type": "String",
    "mandatory": "No",
    "role": null
   },
   "ASEQ": {
    "label": "Analysis Sequence Number",
    "type": "Int32",
    "mandatory": "No",
    "role": null
   },
   "REGION1": {
    "label": "Geographic Region 1",
    "type": "String",
    "mandatory": "No",
    "role": null
   },
   "DMDTC": {
    "label": "Date/Time of Collection",
    "type": "String",
    "mandatory": "No",
    "role": null
   },
   "DMDY": {
    "label": "Study Day of Collection",
    "type": "Float64",
    "mandatory": "No",
    "role": null
   },
   "AGE": {
    "label": "Age",
    "type": "Float64",
    "mandatory": "No",
    "role": null
   },
   "AGEU": {
    "label": "Age Units",
    "type": "String",
    "mandatory": "No",
    "role": null
   },
   "AGEGR1": {
    "label": "Pooled Age Group 1",
    "type": "String",
    "mandatory": "No",
    "role": null
   },
   "SEX": {
    "label": "Sex",
    "type": "String",
    "mandatory": "No",
    "role": null
   },
   "RACE": {
    "label": "Race",
    "type": "String",
    "mandatory": "No",
    "role": null
   },
   "RACEGR1": {
    "label": "Pooled Race Group 1",
    "type": "String",
    "mandatory": "No",
    "role": null
   },
   "ETHNIC": {
    "label": "Ethnicity",
    "type": "String",
    "mandatory": "No",
    "role": null
   },
   "SAFFL": {
    "label": "Safety Population Flag",
    "type": "String",
    "mandatory": "No",
    "role": null
   },
   "ARM": {
    "label": "Description of Planned Arm",
    "type": "String",
    "mandatory": "No",
    "role": null
   },
   "ARMCD": {
    "label": "Planned Arm Code",
    "type": "String",
    "mandatory": "No",
    "role": null
   },
   "ACTARM": {
    "label": "Description of Actual Arm",
    "type": "String",
    "mandatory": "No",
    "role": null
   },
   "ACTARMCD": {
    "label": "Actual Arm Code",
    "type": "String",
    "mandatory": "No",
    "role": null
   },
   "TRT01P": {
    "label": "Planned Treatment for Period 01",
    "type": "String",
    "mandatory": "No",
    "role": null
   },
   "TRT01A": {
    "label": "Actual Treatment for Period 01",
    "type": "String",
    "mandatory": "No",
    "role": null
   },
   "TRTSDT": {
    "label": "Date of First Exposure to Treatment",
    "type": "Date",
    "mandatory": "No",
    "role": null
   },
   "TRTSDTM": {
    "label": "Datetime of First Exposure to Treatment",
    "type": "Datetime",
    "mandatory": "No",
    "role": null
   },
   "TRTSTMF": {
    "label": "Time of First Exposure Imput. Flag",
    "type": "String",
    "mandatory": "No",
    "role": null
   },
   "TRTEDT": {
    "label": "Date of Last Exposure to Treatment",
    "type": "Date",
    "mandatory": "No",
    "role": null
   },
   "TRTEDTM": {
    "label": "Datetime of Last Exposure to Treatment",
    "type": "Datetime",
    "mandatory": "No",
    "role": null
   },
   "TRTETMF": {
    "label": "Time of Last Exposure Imput. Flag",
    "type": "String",
    "mandatory": "No",
    "role": null
   },
   "EOSSTT": {
    "label": "End of Study Status",
    "type": "String",
    "mandatory": "No",
    "role": null
   },
   "EOSDT": {
    "label": "End of Study Date",
    "type": "Date",
    "mandatory": "No",
    "role": null
   },
   "RFICDTC": {
    "label": "Date/Time of Informed Consent",
    "type": "String",
    "mandatory": "No",
    "role": null
   },
   "RANDDT": {
    "label": "Date of Randomization",
    "type": "Date",
    "mandatory": "No",
    "role": null
   },
   "LSTALVDT": {
    "label": "Date Last Known Alive",
    "type": "Date",
    "mandatory": "No",
    "role": null
   },
   "TRTDURD": {
    "label": "Total Treatment Duration (Days)",
    "type": "Float64",
    "mandatory": "No",
    "role": null
   },
   "DTHDT": {
    "label": "Date of Death",
    "type": "Date",
    "mandatory": "No",
    "role": null
   },
   "DTHDTF": {
    "label": "Date of Death Imputation Flag",
    "type": "String",
    "mandatory": "No",
    "role": null
   },
   "DTHCAUS": {
    "label": "Cause of Death",
    "type": "String",
    "mandatory": "No",
    "role": null
   },
   "DTHCGR1": {
    "label": "Cause of Death Reason 1",
    "type": "String",
    "mandatory": "No",
    "role": null
   },
   "ADT": {
    "label": "Analysis Date",
    "type": "Date",
    "mandatory": "No",
    "role": null
   },
   "ADY": {
    "label": "Analysis Relative Day",
    "type": "Float64",
    "mandatory": "No",
    "role": null
   },
   "AVISIT": {
    "label": "Analysis Visit",
    "type": "String",
    "mandatory": "No",
    "role": null
   },
   "AVISITN": {
    "label": "Analysis Visit (N)",
    "type": "Float64",
    "mandatory": "No",
    "role": null
   },
   "PARAM": {
    "label": "Parameter",
    "type": "String",
    "mandatory": "Yes",
    "role": null
   },
   "PARAMCD": {
    "label": "Parameter Code",
    "type": "String",
    "mandatory": "Yes",
    "role": null
   },
   "PARAMN": {
    "label": "Parameter (N)",
    "type": "Float64",
    "mandatory": "No",
    "role": null
   },
   "PARCAT1": {
    "label": "Parameter Category 1",
    "type": "String",
    "mandatory": "No",
    "role": null
   },
   "AVAL": {
    "label": "Analysis Value",
    "type": "Float64",
    "mandatory": "No",
    "role": null
   },
   "AVALC": {
    "label": "Analysis Value (C)",
    "type": "String",
    "mandatory": "No",
    "role": null
   },
   "BASE": {
    "label": "Baseline Value",
    "type": "Float64",
    "mandatory": "No",
    "role": null
   },
   "CHG": {
    "label": "Change from Baseline",
    "type": "Float64",
    "mandatory": "No",
    "role": null
   },
   "PCHG": {
    "label": "Percent Change from Baseline",
    "type": "Float64",
    "mandatory": "No",
    "role": null
   },
   "ABLFL": {
    "label": "Baseline Record Flag",
    "type": "String",
    "mandatory": "No",
    "role": null
   },
   "VISIT": {
    "label": "Visit Name",
    "type": "String",
    "mandatory": "No",
    "role": null
   },
   "VISITNUM": {
    "label": "Visit Number",
    "type": "Float64",
    "mandatory": "No",
    "role": null
   },
   "VISITDY": {
    "label": "Planned Study Day of Visit",
    "type": "Float64",
    "mandatory": "No",
    "role": null
   },
   "QSBLFL": {
    "label": "Baseline Flag",
    "type": "String",
    "mandatory": "No",
    "role": null
   },
   "QSDTC": {
    "label": "Date/Time of Finding",
    "type": "String",
    "mandatory": "No",
    "role": null
   },
   "QSDY": {
    "label": "Study Day of Finding",
    "type": "Float64",
    "mandatory": "No",
    "role": null
   },
   "QSCAT": {
    "label": "Category for Questionnaire",
    "type": "String",
    "mandatory": "No",
    "role": null
   },
   "QSTEST": {
    "label": "Questionnaire Test Name",
    "type": "String",
    "mandatory": "No",
    "role": null
   },
   "QSTESTCD": {
    "label": "Questionnaire Test Short Name",
    "type": "String",
    "mandatory": "No",
    "role": null
   },
   "QSORRES": {
    "label": "Result or Finding in Original Units",
    "type": "String",
    "mandatory": "No",
    "role": null
   },
   "QSORRESU": {
    "label": "Original Units",
    "type": "String",
    "mandatory": "No",
    "role": null
   },
   "QSSTRESC": {
    "label": "Character Result/Finding in Std Format",
    "type": "String",
    "mandatory": "No",
    "role": null
   },
   "QSSTRESN": {
    "label": "Numeric Result/Finding in Standard Units",
    "type": "Float64",
    "mandatory": "No",
    "role": null
   },
   "QSSTRESU": {
    "label": "Standard Units",
    "type": "String",
    "mandatory": "No",
    "role": null
   },
   "QSSEQ": {
    "label": "Sequence Number",
    "type": "Int32",
    "mandatory": "No",
    "role": null
   }
  }
 },
 "adeg": {
  "label": "Electrocardiogram Tests Analysis",
  "structure": "One or more records per subject per analysis parameter per analysis timepoint",
  "n_rows": 78756,
  "columns": {
   "STUDYID": {
    "label": "Study Identifier",
    "type": "String",
    "mandatory": "Yes",
    "role": "Identifier Variables for BDS Datasets"
   },
   "USUBJID": {
    "label": "Unique Subject Identifier",
    "type": "String",
    "mandatory": "Yes",
    "role": "Identifier Variables for BDS Datasets"
   },
   "SUBJID": {
    "label": "Subject Identifier for the Study",
    "type": "String",
    "mandatory": "No",
    "role": "Identifier Variables for BDS Datasets"
   },
   "SITEID": {
    "label": "Study Site Identifier",
    "type": "String",
    "mandatory": "No",
    "role": "Identifier Variables for BDS Datasets"
   },
   "COUNTRY": {
    "label": "Country",
    "type": "String",
    "mandatory": "No",
    "role": null
   },
   "DOMAIN": {
    "label": "Domain Abbreviation",
    "type": "String",
    "mandatory": "No",
    "role": null
   },
   "RFSTDTC": {
    "label": "Subject Reference Start Date/Time",
    "type": "String",
    "mandatory": "No",
    "role": null
   },
   "RFENDTC": {
    "label": "Subject Reference End Date/Time",
    "type": "String",
    "mandatory": "No",
    "role": null
   },
   "RFXSTDTC": {
    "label": "Date/Time of First Study Treatment",
    "type": "String",
    "mandatory": "No",
    "role": null
   },
   "RFXENDTC": {
    "label": "Date/Time of Last Study Treatment",
    "type": "String",
    "mandatory": "No",
    "role": null
   },
   "RFPENDTC": {
    "label": "Date/Time of End of Participation",
    "type": "String",
    "mandatory": "No",
    "role": null
   },
   "SCRFDT": {
    "label": "Screen Failure Date",
    "type": "Date",
    "mandatory": "No",
    "role": null
   },
   "FRVDT": {
    "label": "Final Retrieval Visit Date",
    "type": "Date",
    "mandatory": "No",
    "role": null
   },
   "DTHDTC": {
    "label": "Date/Time of Death",
    "type": "String",
    "mandatory": "No",
    "role": null
   },
   "DTHADY": {
    "label": "Relative Day of Death",
    "type": "Float64",
    "mandatory": "No",
    "role": null
   },
   "DTHFL": {
    "label": "Subject Death Flag",
    "type": "String",
    "mandatory": "No",
    "role": null
   },
   "LDDTHELD": {
    "label": "Elapsed Days from Last Dose to Death",
    "type": "Float64",
    "mandatory": "No",
    "role": null
   },
   "LDDTHGR1": {
    "label": "Last Dose to Death - Days Elapsed Grp 1",
    "type": "String",
    "mandatory": "No",
    "role": null
   },
   "DTH30FL": {
    "label": "Death Within 30 Days of Last Trt Flag",
    "type": "String",
    "mandatory": "No",
    "role": null
   },
   "DTHA30FL": {
    "label": "Death After 30 Days from Last Trt Flag",
    "type": "String",
    "mandatory": "No",
    "role": null
   },
   "DTHDOM": {
    "label": "Domain for Date of Death Collection",
    "type": "String",
    "mandatory": "No",
    "role": null
   },
   "DTHB30FL": {
    "label": "Death Within 30 Days of First Trt Flag",
    "type": "String",
    "mandatory": "No",
    "role": null
   },
   "ASEQ": {
    "label": "Analysis Sequence Number",
    "type": "Int32",
    "mandatory": "No",
    "role": "Identifier Variables for BDS Datasets"
   },
   "REGION1": {
    "label": "Geographic Region 1",
    "type": "String",
    "mandatory": "No",
    "role": null
   },
   "DMDTC": {
    "label": "Date/Time of Collection",
    "type": "String",
    "mandatory": "No",
    "role": null
   },
   "DMDY": {
    "label": "Study Day of Collection",
    "type": "Float64",
    "mandatory": "No",
    "role": null
   },
   "AGE": {
    "label": "Age",
    "type": "Float64",
    "mandatory": "No",
    "role": "ADSL Subject Demographics Variables"
   },
   "AGEU": {
    "label": "Age Units",
    "type": "String",
    "mandatory": "No",
    "role": "ADSL Subject Demographics Variables"
   },
   "AGEGR1": {
    "label": "Pooled Age Group 1",
    "type": "String",
    "mandatory": "No",
    "role": null
   },
   "SEX": {
    "label": "Sex",
    "type": "String",
    "mandatory": "No",
    "role": "ADSL Subject Demographics Variables"
   },
   "RACE": {
    "label": "Race",
    "type": "String",
    "mandatory": "No",
    "role": "ADSL Subject Demographics Variables"
   },
   "RACEGR1": {
    "label": "Pooled Race Group 1",
    "type": "String",
    "mandatory": "No",
    "role": null
   },
   "ETHNIC": {
    "label": "Ethnicity",
    "type": "String",
    "mandatory": "No",
    "role": null
   },
   "SAFFL": {
    "label": "Safety Population Flag",
    "type": "String",
    "mandatory": "No",
    "role": "ADSL Population Indicator Variables"
   },
   "ARM": {
    "label": "Description of Planned Arm",
    "type": "String",
    "mandatory": "No",
    "role": "ADSL Treatment Variables"
   },
   "ARMCD": {
    "label": "Planned Arm Code",
    "type": "String",
    "mandatory": "No",
    "role": null
   },
   "ACTARM": {
    "label": "Description of Actual Arm",
    "type": "String",
    "mandatory": "No",
    "role": "ADSL Treatment Variables"
   },
   "ACTARMCD": {
    "label": "Actual Arm Code",
    "type": "String",
    "mandatory": "No",
    "role": null
   },
   "TRTP": {
    "label": "Planned Treatment",
    "type": "String",
    "mandatory": "No",
    "role": "Record-Level Treatment Variables for BDS Datasets"
   },
   "TRTA": {
    "label": "Actual Treatment",
    "type": "String",
    "mandatory": "No",
    "role": "Record-Level Treatment Variables for BDS Datasets"
   },
   "TRT01P": {
    "label": "Planned Treatment for Period 01",
    "type": "String",
    "mandatory": "No",
    "role": null
   },
   "TRT01A": {
    "label": "Actual Treatment for Period 01",
    "type": "String",
    "mandatory": "No",
    "role": null
   },
   "TRTSDT": {
    "label": "Date of First Exposure to Treatment",
    "type": "Date",
    "mandatory": "No",
    "role": "ADSL Treatment Timing Variables"
   },
   "TRTSDTM": {
    "label": "Datetime of First Exposure to Treatment",
    "type": "Datetime",
    "mandatory": "No",
    "role": "ADSL Treatment Timing Variables"
   },
   "TRTSTMF": {
    "label": "Time of First Exposure Imput. Flag",
    "type": "String",
    "mandatory": "No",
    "role": "ADSL Treatment Timing Variables"
   },
   "TRTEDT": {
    "label": "Date of Last Exposure to Treatment",
    "type": "Date",
    "mandatory": "No",
    "role": "ADSL Treatment Timing Variables"
   },
   "TRTEDTM": {
    "label": "Datetime of Last Exposure to Treatment",
    "type": "Datetime",
    "mandatory": "No",
    "role": "ADSL Treatment Timing Variables"
   },
   "TRTETMF": {
    "label": "Time of Last Exposure Imput. Flag",
    "type": "String",
    "mandatory": "No",
    "role": "ADSL Treatment Timing Variables"
   },
   "EOSSTT": {
    "label": "End of Study Status",
    "type": "String",
    "mandatory": "No",
    "role": "ADSL Subject-Level Trial Experience Variables"
   },
   "EOSDT": {
    "label": "End of Study Date",
    "type": "Date",
    "mandatory": "No",
    "role": "ADSL Subject-Level Trial Experience Variables"
   },
   "RFICDTC": {
    "label": "Date/Time of Informed Consent",
    "type": "String",
    "mandatory": "No",
    "role": null
   },
   "RANDDT": {
    "label": "Date of Randomization",
    "type": "Date",
    "mandatory": "No",
    "role": "ADSL Subject-Level Trial Experience Variables"
   },
   "LSTALVDT": {
    "label": "Date Last Known Alive",
    "type": "Date",
    "mandatory": "No",
    "role": "ADSL Subject-Level Trial Experience Variables"
   },
   "TRTDURD": {
    "label": "Total Treatment Duration (Days)",
    "type": "Float64",
    "mandatory": "No",
    "role": "ADSL Subject-Level Trial Experience Variables"
   },
   "DTHDT": {
    "label": "Date of Death",
    "type": "Date",
    "mandatory": "No",
    "role": "ADSL Subject-Level Trial Experience Variables"
   },
   "DTHDTF": {
    "label": "Date of Death Imputation Flag",
    "type": "String",
    "mandatory": "No",
    "role": "ADSL Subject-Level Trial Experience Variables"
   },
   "DTHCAUS": {
    "label": "Cause of Death",
    "type": "String",
    "mandatory": "No",
    "role": null
   },
   "DTHCGR1": {
    "label": "Cause of Death Reason 1",
    "type": "String",
    "mandatory": "No",
    "role": null
   },
   "ADT": {
    "label": "Analysis Date",
    "type": "Date",
    "mandatory": "No",
    "role": "Timing Variables for BDS Datasets"
   },
   "ADTM": {
    "label": "Analysis Datetime",
    "type": "Datetime",
    "mandatory": "No",
    "role": "Timing Variables for BDS Datasets"
   },
   "ADY": {
    "label": "Analysis Relative Day",
    "type": "Float64",
    "mandatory": "No",
    "role": "Timing Variables for BDS Datasets"
   },
   "ATMF": {
    "label": "Analysis Time Imputation Flag",
    "type": "String",
    "mandatory": "No",
    "role": "Timing Variables for BDS Datasets"
   },
   "AVISIT": {
    "label": "Analysis Visit",
    "type": "String",
    "mandatory": "No",
    "role": "Timing Variables for BDS Datasets"
   },
   "AVISITN": {
    "label": "Analysis Visit (N)",
    "type": "Float64",
    "mandatory": "No",
    "role": "Timing Variables for BDS Datasets"
   },
   "ATPT": {
    "label": "Analysis Timepoint",
    "type": "String",
    "mandatory": "No",
    "role": "Timing Variables for BDS Datasets"
   },
   "ATPTN": {
    "label": "Analysis Timepoint (N)",
    "type": "Float64",
    "mandatory": "No",
    "role": "Timing Variables for BDS Datasets"
   },
   "PARAM": {
    "label": "Parameter",
    "type": "String",
    "mandatory": "Yes",
    "role": "Analysis Parameter Variables for BDS Datasets"
   },
   "PARAMCD": {
    "label": "Parameter Code",
    "type": "String",
    "mandatory": "Yes",
    "role": "Analysis Parameter Variables for BDS Datasets"
   },
   "PARAMN": {
    "label": "Parameter (N)",
    "type": "Float64",
    "mandatory": "No",
    "role": "Analysis Parameter Variables for BDS Datasets"
   },
   "AVAL": {
    "label": "Analysis Value",
    "type": "Float64",
    "mandatory": "No",
    "role": "Analysis Parameter Variables for BDS Datasets"
   },
   "AVALC": {
    "label": "Analysis Value (C)",
    "type": "String",
    "mandatory": "No",
    "role": "Analysis Parameter Variables for BDS Datasets"
   },
   "AVALCAT1": {
    "label": "Analysis Value Category 1",
    "type": "String",
    "mandatory": "No",
    "role": null
   },
   "AVALCA1N": {
    "label": "Analysis Value Category 1 (N)",
    "type": "Float64",
    "mandatory": "No",
    "role": null
   },
   "BASE": {
    "label": "Baseline Value",
    "type": "Float64",
    "mandatory": "No",
    "role": "Analysis Parameter Variables for BDS Datasets"
   },
   "BASEC": {
    "label": "Baseline Value (C)",
    "type": "String",
    "mandatory": "No",
    "role": "Analysis Parameter Variables for BDS Datasets"
   },
   "BASETYPE": {
    "label": "Baseline Type",
    "type": "String",
    "mandatory": "No",
    "role": "Analysis Parameter Variables for BDS Datasets"
   },
   "CHG": {
    "label": "Change from Baseline",
    "type": "Float64",
    "mandatory": "No",
    "role": "Analysis Parameter Variables for BDS Datasets"
   },
   "CHGCAT1": {
    "label": "Change from Baseline Category 1",
    "type": "String",
    "mandatory": "No",
    "role": null
   },
   "CHGCAT1N": {
    "label": "Change from Baseline Category 1 (N)",
    "type": "Float64",
    "mandatory": "No",
    "role": null
   },
   "PCHG": {
    "label": "Percent Change from Baseline",
    "type": "Float64",
    "mandatory": "No",
    "role": "Analysis Parameter Variables for BDS Datasets"
   },
   "DTYPE": {
    "label": "Derivation Type",
    "type": "String",
    "mandatory": "No",
    "role": "Analysis Descriptor Variables for BDS Datasets"
   },
   "ANRIND": {
    "label": "Analysis Reference Range Indicator",
    "type": "String",
    "mandatory": "No",
    "role": "Toxicity and Range Variables for BDS Datasets"
   },
   "BNRIND": {
    "label": "Baseline Reference Range Indicator",
    "type": "String",
    "mandatory": "No",
    "role": "Toxicity and Range Variables for BDS Datasets"
   },
   "ANRLO": {
    "label": "Analysis Normal Range Lower Limit",
    "type": "Float64",
    "mandatory": "No",
    "role": "Toxicity and Range Variables for BDS Datasets"
   },
   "ANRHI": {
    "label": "Analysis Normal Range Upper Limit",
    "type": "Float64",
    "mandatory": "No",
    "role": "Toxicity and Range Variables for BDS Datasets"
   },
   "ABLFL": {
    "label": "Baseline Record Flag",
    "type": "String",
    "mandatory": "No",
    "role": "Flag Variables for BDS Datasets"
   },
   "ANL01FL": {
    "label": "Analysis Flag 01",
    "type": "String",
    "mandatory": "No",
    "role": null
   },
   "ONTRTFL": {
    "label": "On Treatment Record Flag",
    "type": "String",
    "mandatory": "No",
    "role": "Flag Variables for BDS Datasets"
   },
   "EGSEQ": {
    "label": "Sequence Number",
    "type": "Float64",
    "mandatory": "No",
    "role": null
   },
   "EGTESTCD": {
    "label": "ECG Test or Examination Short Name",
    "type": "String",
    "mandatory": "No",
    "role": null
   },
   "EGTEST": {
    "label": "ECG Test or Examination Name",
    "type": "String",
    "mandatory": "No",
    "role": null
   },
   "EGORRES": {
    "label": "Result or Finding in Original Units",
    "type": "String",
    "mandatory": "No",
    "role": null
   },
   "EGORRESU": {
    "label": "Original Units",
    "type": "String",
    "mandatory": "No",
    "role": null
   },
   "EGSTRESC": {
    "label": "Character Result/Finding in Std Format",
    "type": "String",
    "mandatory": "No",
    "role": null
   },
   "EGSTRESN": {
    "label": "Numeric Result/Finding in Standard Units",
    "type": "Float64",
    "mandatory": "No",
    "role": null
   },
   "EGSTRESU": {
    "label": "Standard Units",
    "type": "String",
    "mandatory": "No",
    "role": null
   },
   "EGSTAT": {
    "label": "Completion Status",
    "type": "String",
    "mandatory": "No",
    "role": null
   },
   "EGLOC": {
    "label": "Lead Location Used for Measurement",
    "type": "String",
    "mandatory": "No",
    "role": null
   },
   "EGBLFL": {
    "label": "Baseline Flag",
    "type": "String",
    "mandatory": "No",
    "role": null
   },
   "VISITNUM": {
    "label": "Visit Number",
    "type": "Float64",
    "mandatory": "No",
    "role": null
   },
   "VISIT": {
    "label": "Visit Name",
    "type": "String",
    "mandatory": "No",
    "role": null
   },
   "VISITDY": {
    "label": "Planned Study Day of Visit",
    "type": "Float64",
    "mandatory": "No",
    "role": null
   },
   "EGDTC": {
    "label": "Date/Time of ECG",
    "type": "String",
    "mandatory": "No",
    "role": null
   },
   "EGDY": {
    "label": "Study Day of ECG",
    "type": "Float64",
    "mandatory": "No",
    "role": null
   },
   "EGTPT": {
    "label": "Planned Time Point Name",
    "type": "String",
    "mandatory": "No",
    "role": null
   },
   "EGTPTNUM": {
    "label": "Planned Time Point Number",
    "type": "Float64",
    "mandatory": "No",
    "role": null
   },
   "EGELTM": {
    "label": "Planned Elapsed Time from Time Point Ref",
    "type": "String",
    "mandatory": "No",
    "role": null
   },
   "EGTPTREF": {
    "label": "Time Point Reference",
    "type": "String",
    "mandatory": "No",
    "role": null
   }
  }
 },
 "adex": {
  "label": "Exposure Analysis",
  "structure": "One or more records per subject per analysis parameter per analysis timepoint",
  "n_rows": 6315,
  "columns": {
   "STUDYID": {
    "label": "Study Identifier",
    "type": "String",
    "mandatory": "Yes",
    "role": "Identifier Variables for BDS Datasets"
   },
   "USUBJID": {
    "label": "Unique Subject Identifier",
    "type": "String",
    "mandatory": "Yes",
    "role": "Identifier Variables for BDS Datasets"
   },
   "SUBJID": {
    "label": "Subject Identifier for the Study",
    "type": "String",
    "mandatory": "No",
    "role": "Identifier Variables for BDS Datasets"
   },
   "SITEID": {
    "label": "Study Site Identifier",
    "type": "String",
    "mandatory": "No",
    "role": "Identifier Variables for BDS Datasets"
   },
   "COUNTRY": {
    "label": "Country",
    "type": "String",
    "mandatory": "No",
    "role": null
   },
   "DOMAIN": {
    "label": "Domain Abbreviation",
    "type": "String",
    "mandatory": "No",
    "role": null
   },
   "RFSTDTC": {
    "label": "Subject Reference Start Date/Time",
    "type": "String",
    "mandatory": "No",
    "role": null
   },
   "RFENDTC": {
    "label": "Subject Reference End Date/Time",
    "type": "String",
    "mandatory": "No",
    "role": null
   },
   "RFXSTDTC": {
    "label": "Date/Time of First Study Treatment",
    "type": "String",
    "mandatory": "No",
    "role": null
   },
   "RFXENDTC": {
    "label": "Date/Time of Last Study Treatment",
    "type": "String",
    "mandatory": "No",
    "role": null
   },
   "RFPENDTC": {
    "label": "Date/Time of End of Participation",
    "type": "String",
    "mandatory": "No",
    "role": null
   },
   "SCRFDT": {
    "label": "Screen Failure Date",
    "type": "Date",
    "mandatory": "No",
    "role": null
   },
   "FRVDT": {
    "label": "Final Retrieval Visit Date",
    "type": "Date",
    "mandatory": "No",
    "role": null
   },
   "DTHDTC": {
    "label": "Date/Time of Death",
    "type": "String",
    "mandatory": "No",
    "role": null
   },
   "DTHADY": {
    "label": "Relative Day of Death",
    "type": "Float64",
    "mandatory": "No",
    "role": null
   },
   "DTHFL": {
    "label": "Subject Death Flag",
    "type": "String",
    "mandatory": "No",
    "role": null
   },
   "LDDTHELD": {
    "label": "Elapsed Days from Last Dose to Death",
    "type": "Float64",
    "mandatory": "No",
    "role": null
   },
   "LDDTHGR1": {
    "label": "Last Dose to Death - Days Elapsed Grp 1",
    "type": "String",
    "mandatory": "No",
    "role": null
   },
   "DTH30FL": {
    "label": "Death Within 30 Days of Last Trt Flag",
    "type": "String",
    "mandatory": "No",
    "role": null
   },
   "DTHA30FL": {
    "label": "Death After 30 Days from Last Trt Flag",
    "type": "String",
    "mandatory": "No",
    "role": null
   },
   "DTHDOM": {
    "label": "Domain for Date of Death Collection",
    "type": "String",
    "mandatory": "No",
    "role": null
   },
   "DTHB30FL": {
    "label": "Death Within 30 Days of First Trt Flag",
    "type": "String",
    "mandatory": "No",
    "role": null
   },
   "ASEQ": {
    "label": "Analysis Sequence Number",
    "type": "Int32",
    "mandatory": "No",
    "role": "Identifier Variables for BDS Datasets"
   },
   "REGION1": {
    "label": "Geographic Region 1",
    "type": "String",
    "mandatory": "No",
    "role": null
   },
   "DMDTC": {
    "label": "Date/Time of Collection",
    "type": "String",
    "mandatory": "No",
    "role": null
   },
   "DMDY": {
    "label": "Study Day of Collection",
    "type": "Float64",
    "mandatory": "No",
    "role": null
   },
   "AGE": {
    "label": "Age",
    "type": "Float64",
    "mandatory": "No",
    "role": "ADSL Subject Demographics Variables"
   },
   "AGEU": {
    "label": "Age Units",
    "type": "String",
    "mandatory": "No",
    "role": "ADSL Subject Demographics Variables"
   },
   "AGEGR1": {
    "label": "Pooled Age Group 1",
    "type": "String",
    "mandatory": "No",
    "role": null
   },
   "SEX": {
    "label": "Sex",
    "type": "String",
    "mandatory": "No",
    "role": "ADSL Subject Demographics Variables"
   },
   "RACE": {
    "label": "Race",
    "type": "String",
    "mandatory": "No",
    "role": "ADSL Subject Demographics Variables"
   },
   "RACEGR1": {
    "label": "Pooled Race Group 1",
    "type": "String",
    "mandatory": "No",
    "role": null
   },
   "ETHNIC": {
    "label": "Ethnicity",
    "type": "String",
    "mandatory": "No",
    "role": null
   },
   "SAFFL": {
    "label": "Safety Population Flag",
    "type": "String",
    "mandatory": "No",
    "role": "ADSL Population Indicator Variables"
   },
   "ARM": {
    "label": "Description of Planned Arm",
    "type": "String",
    "mandatory": "No",
    "role": "ADSL Treatment Variables"
   },
   "ARMCD": {
    "label": "Planned Arm Code",
    "type": "String",
    "mandatory": "No",
    "role": null
   },
   "ACTARM": {
    "label": "Description of Actual Arm",
    "type": "String",
    "mandatory": "No",
    "role": "ADSL Treatment Variables"
   },
   "ACTARMCD": {
    "label": "Actual Arm Code",
    "type": "String",
    "mandatory": "No",
    "role": null
   },
   "TRT01P": {
    "label": "Planned Treatment for Period 01",
    "type": "String",
    "mandatory": "No",
    "role": null
   },
   "TRT01A": {
    "label": "Actual Treatment for Period 01",
    "type": "String",
    "mandatory": "No",
    "role": null
   },
   "TRTSDT": {
    "label": "Date of First Exposure to Treatment",
    "type": "Date",
    "mandatory": "No",
    "role": "ADSL Treatment Timing Variables"
   },
   "TRTSDTM": {
    "label": "Datetime of First Exposure to Treatment",
    "type": "Datetime",
    "mandatory": "No",
    "role": "ADSL Treatment Timing Variables"
   },
   "TRTSTMF": {
    "label": "Time of First Exposure Imput. Flag",
    "type": "String",
    "mandatory": "No",
    "role": "ADSL Treatment Timing Variables"
   },
   "TRTEDT": {
    "label": "Date of Last Exposure to Treatment",
    "type": "Date",
    "mandatory": "No",
    "role": "ADSL Treatment Timing Variables"
   },
   "TRTEDTM": {
    "label": "Datetime of Last Exposure to Treatment",
    "type": "Datetime",
    "mandatory": "No",
    "role": "ADSL Treatment Timing Variables"
   },
   "TRTETMF": {
    "label": "Time of Last Exposure Imput. Flag",
    "type": "String",
    "mandatory": "No",
    "role": "ADSL Treatment Timing Variables"
   },
   "EOSSTT": {
    "label": "End of Study Status",
    "type": "String",
    "mandatory": "No",
    "role": "ADSL Subject-Level Trial Experience Variables"
   },
   "EOSDT": {
    "label": "End of Study Date",
    "type": "Date",
    "mandatory": "No",
    "role": "ADSL Subject-Level Trial Experience Variables"
   },
   "RFICDTC": {
    "label": "Date/Time of Informed Consent",
    "type": "String",
    "mandatory": "No",
    "role": null
   },
   "RANDDT": {
    "label": "Date of Randomization",
    "type": "Date",
    "mandatory": "No",
    "role": "ADSL Subject-Level Trial Experience Variables"
   },
   "LSTALVDT": {
    "label": "Date Last Known Alive",
    "type": "Date",
    "mandatory": "No",
    "role": "ADSL Subject-Level Trial Experience Variables"
   },
   "TRTDURD": {
    "label": "Total Treatment Duration (Days)",
    "type": "Float64",
    "mandatory": "No",
    "role": "ADSL Subject-Level Trial Experience Variables"
   },
   "DTHDT": {
    "label": "Date of Death",
    "type": "Date",
    "mandatory": "No",
    "role": "ADSL Subject-Level Trial Experience Variables"
   },
   "DTHDTF": {
    "label": "Date of Death Imputation Flag",
    "type": "String",
    "mandatory": "No",
    "role": "ADSL Subject-Level Trial Experience Variables"
   },
   "DTHCAUS": {
    "label": "Cause of Death",
    "type": "String",
    "mandatory": "No",
    "role": null
   },
   "DTHCGR1": {
    "label": "Cause of Death Reason 1",
    "type": "String",
    "mandatory": "No",
    "role": null
   },
   "EXTRT": {
    "label": "Name of Treatment",
    "type": "String",
    "mandatory": "No",
    "role": null
   },
   "EXDOSE": {
    "label": "Dose",
    "type": "Float64",
    "mandatory": "No",
    "role": null
   },
   "EXDOSFRM": {
    "label": "Dose Form",
    "type": "String",
    "mandatory": "No",
    "role": null
   },
   "EXDOSFRQ": {
    "label": "Dosing Frequency per Interval",
    "type": "String",
    "mandatory": "No",
    "role": null
   },
   "EXROUTE": {
    "label": "Route of Administration",
    "type": "String",
    "mandatory": "No",
    "role": null
   },
   "EXADJ": {
    "label": "Reason for Dose Adjustment",
    "type": "String",
    "mandatory": "No",
    "role": null
   },
   "EXSTDTC": {
    "label": "Start Date/Time of Treatment",
    "type": "String",
    "mandatory": "No",
    "role": null
   },
   "EXENDTC": {
    "label": "End Date/Time of Treatment",
    "type": "String",
    "mandatory": "No",
    "role": null
   },
   "EXSTDY": {
    "label": "Study Day of Start of Treatment",
    "type": "Float64",
    "mandatory": "No",
    "role": null
   },
   "EXENDY": {
    "label": "Study Day of End of Treatment",
    "type": "Float64",
    "mandatory": "No",
    "role": null
   },
   "EXSEQ": {
    "label": "Sequence Number",
    "type": "Float64",
    "mandatory": "No",
    "role": null
   },
   "ASTDT": {
    "label": "Analysis Start Date",
    "type": "Date",
    "mandatory": "No",
    "role": "Timing Variables for BDS Datasets"
   },
   "AENDT": {
    "label": "Analysis End Date",
    "type": "Date",
    "mandatory": "No",
    "role": "Timing Variables for BDS Datasets"
   },
   "EXDURD": {
    "label": "Duration of Treatment (Days)",
    "type": "Float64",
    "mandatory": "No",
    "role": null
   },
   "EXDOSU": {
    "label": "Dose Units",
    "type": "String",
    "mandatory": "No",
    "role": null
   },
   "VISITNUM": {
    "label": "Visit Number",
    "type": "Float64",
    "mandatory": "No",
    "role": null
   },
   "VISIT": {
    "label": "Visit Name",
    "type": "String",
    "mandatory": "No",
    "role": null
   },
   "VISITDY": {
    "label": "Planned Study Day of Visit",
    "type": "Float64",
    "mandatory": "No",
    "role": null
   },
   "EXPLDOS": {
    "label": "Planned Dose",
    "type": "Float64",
    "mandatory": "No",
    "role": null
   },
   "ASTDTM": {
    "label": "Analysis Start Datetime",
    "type": "Datetime",
    "mandatory": "No",
    "role": "Timing Variables for BDS Datasets"
   },
   "ASTDTF": {
    "label": "Analysis Start Date Imputation Flag",
    "type": "String",
    "mandatory": "No",
    "role": "Timing Variables for BDS Datasets"
   },
   "ASTTMF": {
    "label": "Analysis Start Time Imputation Flag",
    "type": "String",
    "mandatory": "No",
    "role": "Timing Variables for BDS Datasets"
   },
   "AENDTM": {
    "label": "Analysis End Datetime",
    "type": "Datetime",
    "mandatory": "No",
    "role": "Timing Variables for BDS Datasets"
   },
   "AENDTF": {
    "label": "Analysis End Date Imputation Flag",
    "type": "String",
    "mandatory": "No",
    "role": "Timing Variables for BDS Datasets"
   },
   "AENTMF": {
    "label": "Analysis End Time Imputation Flag",
    "type": "String",
    "mandatory": "No",
    "role": "Timing Variables for BDS Datasets"
   },
   "ASTDY": {
    "label": "Analysis Start Relative Day",
    "type": "Float64",
    "mandatory": "No",
    "role": "Timing Variables for BDS Datasets"
   },
   "AENDY": {
    "label": "Analysis End Relative Day",
    "type": "Float64",
    "mandatory": "No",
    "role": "Timing Variables for BDS Datasets"
   },
   "DOSEO": {
    "label": "Dose O",
    "type": "Float64",
    "mandatory": "No",
    "role": null
   },
   "PDOSEO": {
    "label": "PDose O",
    "type": "Float64",
    "mandatory": "No",
    "role": null
   },
   "PARAMCD": {
    "label": "Parameter Code",
    "type": "String",
    "mandatory": "Yes",
    "role": "Analysis Parameter Variables for BDS Datasets"
   },
   "AVAL": {
    "label": "Analysis Value",
    "type": "Float64",
    "mandatory": "No",
    "role": "Analysis Parameter Variables for BDS Datasets"
   },
   "AVALC": {
    "label": "Analysis Value (C)",
    "type": "String",
    "mandatory": "No",
    "role": "Analysis Parameter Variables for BDS Datasets"
   },
   "PARCAT1": {
    "label": "Parameter Category 1",
    "type": "String",
    "mandatory": "No",
    "role": null
   },
   "PARAM": {
    "label": "Parameter",
    "type": "String",
    "mandatory": "Yes",
    "role": "Analysis Parameter Variables for BDS Datasets"
   },
   "PARAMN": {
    "label": "Parameter (N)",
    "type": "Float64",
    "mandatory": "No",
    "role": "Analysis Parameter Variables for BDS Datasets"
   },
   "AVALCAT1": {
    "label": "Analysis Value Category 1",
    "type": "String",
    "mandatory": "No",
    "role": null
   }
  }
 },
 "adface_vaccine": {
  "label": "Findings About Clinical Events Analysis",
  "structure": "One or more records per subject per analysis parameter per analysis timepoint",
  "n_rows": 371,
  "columns": {
   "STUDYID": {
    "label": "Study Identifier",
    "type": "String",
    "mandatory": "Yes",
    "role": "Identifier Variables for BDS Datasets"
   },
   "USUBJID": {
    "label": "Unique Subject Identifier",
    "type": "String",
    "mandatory": "Yes",
    "role": "Identifier Variables for BDS Datasets"
   },
   "SUBJID": {
    "label": "Subject Identifier for the Study",
    "type": "String",
    "mandatory": "No",
    "role": "Identifier Variables for BDS Datasets"
   },
   "SITEID": {
    "label": "Study Site Identifier",
    "type": "Float64",
    "mandatory": "No",
    "role": "Identifier Variables for BDS Datasets"
   },
   "AGE": {
    "label": "Age",
    "type": "Float64",
    "mandatory": "No",
    "role": "ADSL Subject Demographics Variables"
   },
   "AGEU": {
    "label": "Age Units",
    "type": "String",
    "mandatory": "No",
    "role": "ADSL Subject Demographics Variables"
   },
   "SEX": {
    "label": "Sex",
    "type": "String",
    "mandatory": "No",
    "role": "ADSL Subject Demographics Variables"
   },
   "RACE": {
    "label": "Race",
    "type": "String",
    "mandatory": "No",
    "role": "ADSL Subject Demographics Variables"
   },
   "SAFFL": {
    "label": "Safety Population Flag",
    "type": "String",
    "mandatory": "No",
    "role": "ADSL Population Indicator Variables"
   },
   "ARM": {
    "label": "Description of Planned Arm",
    "type": "String",
    "mandatory": "No",
    "role": "ADSL Treatment Variables"
   },
   "ARMCD": {
    "label": "Planned Arm Code",
    "type": "String",
    "mandatory": "No",
    "role": null
   },
   "ACTARM": {
    "label": "Description of Actual Arm",
    "type": "String",
    "mandatory": "No",
    "role": "ADSL Treatment Variables"
   },
   "ACTARMCD": {
    "label": "Actual Arm Code",
    "type": "String",
    "mandatory": "No",
    "role": null
   },
   "TRTP": {
    "label": "Planned Treatment",
    "type": "String",
    "mandatory": "No",
    "role": "Record-Level Treatment Variables for BDS Datasets"
   },
   "TRTA": {
    "label": "Actual Treatment",
    "type": "String",
    "mandatory": "No",
    "role": "Record-Level Treatment Variables for BDS Datasets"
   },
   "TRT01P": {
    "label": "Planned Treatment for Period 01",
    "type": "String",
    "mandatory": "No",
    "role": null
   },
   "TRT01A": {
    "label": "Actual Treatment for Period 01",
    "type": "String",
    "mandatory": "No",
    "role": null
   },
   "TRT02P": {
    "label": "Planned Treatment for Period 02",
    "type": "String",
    "mandatory": "No",
    "role": null
   },
   "TRT02A": {
    "label": "Actual Treatment for Period 02",
    "type": "String",
    "mandatory": "No",
    "role": null
   },
   "TRTSDT": {
    "label": "Date of First Exposure to Treatment",
    "type": "Date",
    "mandatory": "No",
    "role": "ADSL Treatment Timing Variables"
   },
   "TRTSDTM": {
    "label": "Datetime of First Exposure to Treatment",
    "type": "Datetime",
    "mandatory": "No",
    "role": "ADSL Treatment Timing Variables"
   },
   "TRTEDT": {
    "label": "Date of Last Exposure to Treatment",
    "type": "Date",
    "mandatory": "No",
    "role": "ADSL Treatment Timing Variables"
   },
   "TRTEDTM": {
    "label": "Datetime of Last Exposure to Treatment",
    "type": "Datetime",
    "mandatory": "No",
    "role": "ADSL Treatment Timing Variables"
   },
   "APERSDT": {
    "label": "Period Start Date",
    "type": "Date",
    "mandatory": "No",
    "role": "Period, Subperiod, and Phase Start and End Timing Variables"
   },
   "APEREDT": {
    "label": "Period End Date",
    "type": "Date",
    "mandatory": "No",
    "role": "Period, Subperiod, and Phase Start and End Timing Variables"
   },
   "ADT": {
    "label": "Analysis Date",
    "type": "Date",
    "mandatory": "No",
    "role": "Timing Variables for BDS Datasets"
   },
   "ADTM": {
    "label": "Analysis Datetime",
    "type": "Datetime",
    "mandatory": "No",
    "role": "Timing Variables for BDS Datasets"
   },
   "ADY": {
    "label": "Analysis Relative Day",
    "type": "Float64",
    "mandatory": "No",
    "role": "Timing Variables for BDS Datasets"
   },
   "ATPT": {
    "label": "Analysis Timepoint",
    "type": "String",
    "mandatory": "No",
    "role": "Timing Variables for BDS Datasets"
   },
   "ATPTN": {
    "label": "Analysis Timepoint (N)",
    "type": "Float64",
    "mandatory": "No",
    "role": "Timing Variables for BDS Datasets"
   },
   "ATPTREF": {
    "label": "Analysis Timepoint Reference",
    "type": "String",
    "mandatory": "No",
    "role": "Timing Variables for BDS Datasets"
   },
   "APERIOD": {
    "label": "Period",
    "type": "Int32",
    "mandatory": "No",
    "role": "Timing Variables for BDS Datasets"
   },
   "PARAM": {
    "label": "Parameter",
    "type": "String",
    "mandatory": "Yes",
    "role": "Analysis Parameter Variables for BDS Datasets"
   },
   "PARAMCD": {
    "label": "Parameter Code",
    "type": "String",
    "mandatory": "Yes",
    "role": "Analysis Parameter Variables for BDS Datasets"
   },
   "PARAMN": {
    "label": "Parameter (N)",
    "type": "Float64",
    "mandatory": "No",
    "role": "Analysis Parameter Variables for BDS Datasets"
   },
   "PARCAT1": {
    "label": "Parameter Category 1",
    "type": "String",
    "mandatory": "No",
    "role": null
   },
   "PARCAT2": {
    "label": "Parameter Category 2",
    "type": "String",
    "mandatory": "No",
    "role": null
   },
   "AVAL": {
    "label": "Analysis Value",
    "type": "Float64",
    "mandatory": "No",
    "role": "Analysis Parameter Variables for BDS Datasets"
   },
   "AVALC": {
    "label": "Analysis Value (C)",
    "type": "String",
    "mandatory": "No",
    "role": "Analysis Parameter Variables for BDS Datasets"
   },
   "ANL01FL": {
    "label": "Analysis Flag 01",
    "type": "String",
    "mandatory": "No",
    "role": null
   },
   "ANL02FL": {
    "label": "Analysis Flag 02",
    "type": "String",
    "mandatory": "No",
    "role": null
   },
   "ANL03FL": {
    "label": "Analysis Flag 03",
    "type": "String",
    "mandatory": "No",
    "role": null
   },
   "FATEST": {
    "label": "Findings About Test Name",
    "type": "String",
    "mandatory": "No",
    "role": null
   },
   "FALNKID": {
    "label": "Link ID",
    "type": "String",
    "mandatory": "No",
    "role": null
   },
   "FALNKGRP": {
    "label": "Link Group ID",
    "type": "String",
    "mandatory": "No",
    "role": null
   },
   "FATESTCD": {
    "label": "Findings About Test Short Name",
    "type": "String",
    "mandatory": "No",
    "role": null
   },
   "FAOBJ": {
    "label": "Object of the Observation",
    "type": "String",
    "mandatory": "No",
    "role": null
   },
   "FASTAT": {
    "label": "Completion Status",
    "type": "String",
    "mandatory": "No",
    "role": null
   },
   "FAREASND": {
    "label": "Reason Not Performed",
    "type": "String",
    "mandatory": "No",
    "role": null
   },
   "FAEVAL": {
    "label": "Evaluator",
    "type": "String",
    "mandatory": "No",
    "role": null
   },
   "EPOCH": {
    "label": "Epoch",
    "type": "String",
    "mandatory": "No",
    "role": null
   },
   "FAEVINTX": {
    "label": "Evaluation Interval Text",
    "type": "String",
    "mandatory": "No",
    "role": null
   },
   "EXDOSE": {
    "label": "Dose",
    "type": "Float64",
    "mandatory": "No",
    "role": null
   },
   "EXTRT": {
    "label": "Name of Treatment",
    "type": "String",
    "mandatory": "No",
    "role": null
   },
   "EXSTDTC": {
    "label": "Start Date/Time of Treatment",
    "type": "String",
    "mandatory": "No",
    "role": null
   },
   "EXENDTC": {
    "label": "End Date/Time of Treatment",
    "type": "String",
    "mandatory": "No",
    "role": null
   },
   "FAORRES": {
    "label": "Result or Finding in Original Units",
    "type": "String",
    "mandatory": "No",
    "role": null
   },
   "VAX01DT": {
    "label": "Vaccination Date 01",
    "type": "Date",
    "mandatory": "No",
    "role": null
   },
   "VAX02DT": {
    "label": "Vaccination Date 02",
    "type": "Date",
    "mandatory": "No",
    "role": null
   },
   "EVENTFL": {
    "label": "Event Value Flag",
    "type": "String",
    "mandatory": "No",
    "role": null
   },
   "EVENTDFL": {
    "label": "Day Event Value Flag",
    "type": "String",
    "mandatory": "No",
    "role": null
   }
  }
 },
 "adis_vaccine": {
  "label": "Immunogenicity Specimen Assessments",
  "structure": "One or more records per subject per analysis parameter per analysis timepoint",
  "n_rows": 64,
  "columns": {
   "STUDYID": {
    "label": "Study Identifier",
    "type": "String",
    "mandatory": "Yes",
    "role": "Identifier Variables for BDS Datasets"
   },
   "USUBJID": {
    "label": "Unique Subject Identifier",
    "type": "String",
    "mandatory": "Yes",
    "role": "Identifier Variables for BDS Datasets"
   },
   "SUBJID": {
    "label": "Subject Identifier for the Study",
    "type": "String",
    "mandatory": "No",
    "role": "Identifier Variables for BDS Datasets"
   },
   "SITEID": {
    "label": "Study Site Identifier",
    "type": "Float64",
    "mandatory": "No",
    "role": "Identifier Variables for BDS Datasets"
   },
   "COUNTRY": {
    "label": "Country",
    "type": "String",
    "mandatory": "No",
    "role": null
   },
   "DOMAIN": {
    "label": "Domain Abbreviation",
    "type": "String",
    "mandatory": "No",
    "role": null
   },
   "RFSTDTC": {
    "label": "Subject Reference Start Date/Time",
    "type": "Date",
    "mandatory": "No",
    "role": null
   },
   "RFENDTC": {
    "label": "Subject Reference End Date/Time",
    "type": "String",
    "mandatory": "No",
    "role": null
   },
   "RFXSTDTC": {
    "label": "Date/Time of First Study Treatment",
    "type": "String",
    "mandatory": "No",
    "role": null
   },
   "RFXENDTC": {
    "label": "Date/Time of Last Study Treatment",
    "type": "String",
    "mandatory": "No",
    "role": null
   },
   "RFPENDTC": {
    "label": "Date/Time of End of Participation",
    "type": "String",
    "mandatory": "No",
    "role": null
   },
   "DTHDTC": {
    "label": "Date/Time of Death",
    "type": "String",
    "mandatory": "No",
    "role": null
   },
   "DTHFL": {
    "label": "Subject Death Flag",
    "type": "String",
    "mandatory": "No",
    "role": null
   },
   "REGION1": {
    "label": "Geographic Region 1",
    "type": "String",
    "mandatory": "No",
    "role": null
   },
   "BRTHDTC": {
    "label": "Date/Time of Birth",
    "type": "String",
    "mandatory": "No",
    "role": null
   },
   "DMDTC": {
    "label": "Date/Time of Collection",
    "type": "String",
    "mandatory": "No",
    "role": null
   },
   "DMDY": {
    "label": "Study Day of Collection",
    "type": "Int32",
    "mandatory": "No",
    "role": null
   },
   "AGE": {
    "label": "Age",
    "type": "Float64",
    "mandatory": "No",
    "role": "ADSL Subject Demographics Variables"
   },
   "AGEU": {
    "label": "Age Units",
    "type": "String",
    "mandatory": "No",
    "role": "ADSL Subject Demographics Variables"
   },
   "AGEGR1": {
    "label": "Pooled Age Group 1",
    "type": "String",
    "mandatory": "No",
    "role": null
   },
   "SEX": {
    "label": "Sex",
    "type": "String",
    "mandatory": "No",
    "role": "ADSL Subject Demographics Variables"
   },
   "RACE": {
    "label": "Race",
    "type": "String",
    "mandatory": "No",
    "role": "ADSL Subject Demographics Variables"
   },
   "RACEGR1": {
    "label": "Pooled Race Group 1",
    "type": "String",
    "mandatory": "No",
    "role": null
   },
   "ETHNIC": {
    "label": "Ethnicity",
    "type": "String",
    "mandatory": "No",
    "role": null
   },
   "SAFFL": {
    "label": "Safety Population Flag",
    "type": "String",
    "mandatory": "No",
    "role": "ADSL Population Indicator Variables"
   },
   "PPROTFL": {
    "label": "Per-Protocol Population Flag",
    "type": "String",
    "mandatory": "No",
    "role": "ADSL Population Indicator Variables"
   },
   "ARM": {
    "label": "Description of Planned Arm",
    "type": "String",
    "mandatory": "No",
    "role": "ADSL Treatment Variables"
   },
   "ARMCD": {
    "label": "Planned Arm Code",
    "type": "String",
    "mandatory": "No",
    "role": null
   },
   "ACTARM": {
    "label": "Description of Actual Arm",
    "type": "String",
    "mandatory": "No",
    "role": "ADSL Treatment Variables"
   },
   "ACTARMCD": {
    "label": "Actual Arm Code",
    "type": "String",
    "mandatory": "No",
    "role": null
   },
   "TRTP": {
    "label": "Planned Treatment",
    "type": "String",
    "mandatory": "No",
    "role": "Record-Level Treatment Variables for BDS Datasets"
   },
   "TRTA": {
    "label": "Actual Treatment",
    "type": "String",
    "mandatory": "No",
    "role": "Record-Level Treatment Variables for BDS Datasets"
   },
   "TRT01P": {
    "label": "Planned Treatment for Period 01",
    "type": "String",
    "mandatory": "No",
    "role": null
   },
   "TRT01A": {
    "label": "Actual Treatment for Period 01",
    "type": "String",
    "mandatory": "No",
    "role": null
   },
   "TRT02P": {
    "label": "Planned Treatment for Period 02",
    "type": "String",
    "mandatory": "No",
    "role": null
   },
   "TRT02A": {
    "label": "Actual Treatment for Period 02",
    "type": "String",
    "mandatory": "No",
    "role": null
   },
   "TRTSDT": {
    "label": "Date of First Exposure to Treatment",
    "type": "Date",
    "mandatory": "No",
    "role": "ADSL Treatment Timing Variables"
   },
   "TRTSDTM": {
    "label": "Datetime of First Exposure to Treatment",
    "type": "Datetime",
    "mandatory": "No",
    "role": "ADSL Treatment Timing Variables"
   },
   "TRTEDT": {
    "label": "Date of Last Exposure to Treatment",
    "type": "Date",
    "mandatory": "No",
    "role": "ADSL Treatment Timing Variables"
   },
   "TRTEDTM": {
    "label": "Datetime of Last Exposure to Treatment",
    "type": "Datetime",
    "mandatory": "No",
    "role": "ADSL Treatment Timing Variables"
   },
   "AP01SDT": {
    "label": "Period 01 Start Date",
    "type": "Date",
    "mandatory": "No",
    "role": null
   },
   "AP01EDT": {
    "label": "Period 01 End Date",
    "type": "Date",
    "mandatory": "No",
    "role": null
   },
   "AP02SDT": {
    "label": "Period 02 Start Date",
    "type": "Date",
    "mandatory": "No",
    "role": null
   },
   "AP02EDT": {
    "label": "Period 02 End Date",
    "type": "Date",
    "mandatory": "No",
    "role": null
   },
   "APERSDT": {
    "label": "Period Start Date",
    "type": "Date",
    "mandatory": "No",
    "role": "Period, Subperiod, and Phase Start and End Timing Variables"
   },
   "APEREDT": {
    "label": "Period End Date",
    "type": "Date",
    "mandatory": "No",
    "role": "Period, Subperiod, and Phase Start and End Timing Variables"
   },
   "RFICDTC": {
    "label": "Date/Time of Informed Consent",
    "type": "String",
    "mandatory": "No",
    "role": null
   },
   "ADT": {
    "label": "Analysis Date",
    "type": "Date",
    "mandatory": "No",
    "role": "Timing Variables for BDS Datasets"
   },
   "ADY": {
    "label": "Analysis Relative Day",
    "type": "Float64",
    "mandatory": "No",
    "role": "Timing Variables for BDS Datasets"
   },
   "AVISIT": {
    "label": "Analysis Visit",
    "type": "String",
    "mandatory": "No",
    "role": "Timing Variables for BDS Datasets"
   },
   "AVISITN": {
    "label": "Analysis Visit (N)",
    "type": "Float64",
    "mandatory": "No",
    "role": "Timing Variables for BDS Datasets"
   },
   "ATPT": {
    "label": "Analysis Timepoint",
    "type": "String",
    "mandatory": "No",
    "role": "Timing Variables for BDS Datasets"
   },
   "ATPTN": {
    "label": "Analysis Timepoint (N)",
    "type": "Float64",
    "mandatory": "No",
    "role": "Timing Variables for BDS Datasets"
   },
   "ATPTREF": {
    "label": "Analysis Timepoint Reference",
    "type": "String",
    "mandatory": "No",
    "role": "Timing Variables for BDS Datasets"
   },
   "APERIOD": {
    "label": "Period",
    "type": "Int32",
    "mandatory": "No",
    "role": "Timing Variables for BDS Datasets"
   },
   "PARAM": {
    "label": "Parameter",
    "type": "String",
    "mandatory": "Yes",
    "role": "Analysis Parameter Variables for BDS Datasets"
   },
   "PARAMCD": {
    "label": "Parameter Code",
    "type": "String",
    "mandatory": "Yes",
    "role": "Analysis Parameter Variables for BDS Datasets"
   },
   "PARAMN": {
    "label": "Parameter (N)",
    "type": "Float64",
    "mandatory": "No",
    "role": "Analysis Parameter Variables for BDS Datasets"
   },
   "PARCAT1": {
    "label": "Parameter Category 1",
    "type": "String",
    "mandatory": "No",
    "role": null
   },
   "AVAL": {
    "label": "Analysis Value",
    "type": "Float64",
    "mandatory": "No",
    "role": "Analysis Parameter Variables for BDS Datasets"
   },
   "AVALU": {
    "label": "Analysis Value Unit",
    "type": "String",
    "mandatory": "No",
    "role": null
   },
   "BASE": {
    "label": "Baseline Value",
    "type": "Float64",
    "mandatory": "No",
    "role": "Analysis Parameter Variables for BDS Datasets"
   },
   "BASECAT1": {
    "label": "Baseline Category 1",
    "type": "String",
    "mandatory": "No",
    "role": null
   },
   "BASETYPE": {
    "label": "Baseline Type",
    "type": "String",
    "mandatory": "No",
    "role": "Analysis Parameter Variables for BDS Datasets"
   },
   "CHG": {
    "label": "Change from Baseline",
    "type": "Float64",
    "mandatory": "No",
    "role": "Analysis Parameter Variables for BDS Datasets"
   },
   "R2BASE": {
    "label": "Ratio to Baseline",
    "type": "Float64",
    "mandatory": "No",
    "role": "Analysis Parameter Variables for BDS Datasets"
   },
   "CRIT1": {
    "label": "Analysis Criterion 1",
    "type": "String",
    "mandatory": "No",
    "role": null
   },
   "CRIT1FL": {
    "label": "Criterion 1 Evaluation Result Flag",
    "type": "String",
    "mandatory": "No",
    "role": null
   },
   "CRIT1FN": {
    "label": "Criterion 1 Evaluation Result Flag (N)",
    "type": "Int32",
    "mandatory": "No",
    "role": null
   },
   "DTYPE": {
    "label": "Derivation Type",
    "type": "String",
    "mandatory": "No",
    "role": "Analysis Descriptor Variables for BDS Datasets"
   },
   "ABLFL": {
    "label": "Baseline Record Flag",
    "type": "String",
    "mandatory": "No",
    "role": "Flag Variables for BDS Datasets"
   },
   "ISSEQ": {
    "label": "Sequence Number",
    "type": "Float64",
    "mandatory": "No",
    "role": null
   },
   "ISTESTCD": {
    "label": "Immunogenicity Test/Exam Short Name",
    "type": "String",
    "mandatory": "No",
    "role": null
   },
   "ISTEST": {
    "label": "Immunogenicity Test or Examination Name",
    "type": "String",
    "mandatory": "No",
    "role": null
   },
   "ISCAT": {
    "label": "Category for Immunogenicity Test",
    "type": "String",
    "mandatory": "No",
    "role": null
   },
   "ISORRES": {
    "label": "Results or Findings in Original Units",
    "type": "String",
    "mandatory": "No",
    "role": null
   },
   "ISORRESU": {
    "label": "Original Units",
    "type": "String",
    "mandatory": "No",
    "role": null
   },
   "ISSTRESC": {
    "label": "Character Result/Finding in Std Format",
    "type": "String",
    "mandatory": "No",
    "role": null
   },
   "ISSTRESN": {
    "label": "Numeric Results/Findings in Std. Units",
    "type": "Float64",
    "mandatory": "No",
    "role": null
   },
   "ISSTRESU": {
    "label": "Standard Units",
    "type": "String",
    "mandatory": "No",
    "role": null
   },
   "ISSTAT": {
    "label": "Completion Status",
    "type": "String",
    "mandatory": "No",
    "role": null
   },
   "ISREASND": {
    "label": "Reason Not Done",
    "type": "String",
    "mandatory": "No",
    "role": null
   },
   "ISNAM": {
    "label": "Vendor Name",
    "type": "String",
    "mandatory": "No",
    "role": null
   },
   "ISSPEC": {
    "label": "Specimen Type",
    "type": "String",
    "mandatory": "No",
    "role": null
   },
   "ISMETHOD": {
    "label": "Method of Test or Examination",
    "type": "String",
    "mandatory": "No",
    "role": null
   },
   "ISBLFL": {
    "label": "Baseline Flag",
    "type": "String",
    "mandatory": "No",
    "role": null
   },
   "ISLLOQ": {
    "label": "Lower Limit of Quantitation",
    "type": "Float64",
    "mandatory": "No",
    "role": null
   },
   "VISITNUM": {
    "label": "Visit Number",
    "type": "Float64",
    "mandatory": "No",
    "role": null
   },
   "EPOCH": {
    "label": "Epoch",
    "type": "String",
    "mandatory": "No",
    "role": null
   },
   "ISDTC": {
    "label": "Date/Time of Collection",
    "type": "String",
    "mandatory": "No",
    "role": null
   },
   "ISDY": {
    "label": "Study Day of Visit/Collection/Exam",
    "type": "String",
    "mandatory": "No",
    "role": null
   },
   "ISULOQ": {
    "label": "Upper Limit of Quantitation",
    "type": "Float64",
    "mandatory": "No",
    "role": null
   },
   "LOD": {
    "label": "Limit of Detection",
    "type": "String",
    "mandatory": "No",
    "role": null
   },
   "DERIVED": {
    "label": "Derivation Method",
    "type": "String",
    "mandatory": "No",
    "role": null
   },
   "CUTOFF02": {
    "label": "First Cutoff Value",
    "type": "Float64",
    "mandatory": "No",
    "role": null
   },
   "CUTOFF03": {
    "label": "Second Cutoff Value",
    "type": "Float64",
    "mandatory": "No",
    "role": null
   },
   "SERCAT1": {
    "label": "Pre-vaccination seropositivity status",
    "type": "String",
    "mandatory": "No",
    "role": null
   },
   "SERCAT1N": {
    "label": "Pre-vaccination sero status (n)",
    "type": "Float64",
    "mandatory": "No",
    "role": null
   },
   "PPSRFL": {
    "label": "Per-Protocol Record-Level Flag",
    "type": "String",
    "mandatory": "No",
    "role": null
   },
   "INVID": {
    "label": "Investigator Identifier",
    "type": "Float64",
    "mandatory": "No",
    "role": null
   },
   "INVNAM": {
    "label": "Investigator Name",
    "type": "String",
    "mandatory": "No",
    "role": null
   },
   "VAX01DT": {
    "label": "Vaccination Date 01",
    "type": "Date",
    "mandatory": "No",
    "role": null
   },
   "VAX02DT": {
    "label": "Vaccination Date 02",
    "type": "Date",
    "mandatory": "No",
    "role": null
   }
  }
 },
 "adlb": {
  "label": "Laboratory Analysis",
  "structure": "One or more records per subject per analysis parameter per analysis timepoint",
  "n_rows": 83652,
  "columns": {
   "STUDYID": {
    "label": "Study Identifier",
    "type": "String",
    "mandatory": "Yes",
    "role": "Identifier Variables for BDS Datasets"
   },
   "USUBJID": {
    "label": "Unique Subject Identifier",
    "type": "String",
    "mandatory": "Yes",
    "role": "Identifier Variables for BDS Datasets"
   },
   "SUBJID": {
    "label": "Subject Identifier for the Study",
    "type": "String",
    "mandatory": "No",
    "role": "Identifier Variables for BDS Datasets"
   },
   "SITEID": {
    "label": "Study Site Identifier",
    "type": "String",
    "mandatory": "No",
    "role": "Identifier Variables for BDS Datasets"
   },
   "COUNTRY": {
    "label": "Country",
    "type": "String",
    "mandatory": "No",
    "role": null
   },
   "DOMAIN": {
    "label": "Domain Abbreviation",
    "type": "String",
    "mandatory": "No",
    "role": null
   },
   "RFSTDTC": {
    "label": "Subject Reference Start Date/Time",
    "type": "String",
    "mandatory": "No",
    "role": null
   },
   "RFENDTC": {
    "label": "Subject Reference End Date/Time",
    "type": "String",
    "mandatory": "No",
    "role": null
   },
   "RFXSTDTC": {
    "label": "Date/Time of First Study Treatment",
    "type": "String",
    "mandatory": "No",
    "role": null
   },
   "RFXENDTC": {
    "label": "Date/Time of Last Study Treatment",
    "type": "String",
    "mandatory": "No",
    "role": null
   },
   "RFPENDTC": {
    "label": "Date/Time of End of Participation",
    "type": "String",
    "mandatory": "No",
    "role": null
   },
   "SCRFDT": {
    "label": "Screen Failure Date",
    "type": "Date",
    "mandatory": "No",
    "role": null
   },
   "FRVDT": {
    "label": "Final Retrieval Visit Date",
    "type": "Date",
    "mandatory": "No",
    "role": null
   },
   "DTHDTC": {
    "label": "Date/Time of Death",
    "type": "String",
    "mandatory": "No",
    "role": null
   },
   "DTHADY": {
    "label": "Relative Day of Death",
    "type": "Float64",
    "mandatory": "No",
    "role": null
   },
   "DTHFL": {
    "label": "Subject Death Flag",
    "type": "String",
    "mandatory": "No",
    "role": null
   },
   "LDDTHELD": {
    "label": "Elapsed Days from Last Dose to Death",
    "type": "Float64",
    "mandatory": "No",
    "role": null
   },
   "LDDTHGR1": {
    "label": "Last Dose to Death - Days Elapsed Grp 1",
    "type": "String",
    "mandatory": "No",
    "role": null
   },
   "DTH30FL": {
    "label": "Death Within 30 Days of Last Trt Flag",
    "type": "String",
    "mandatory": "No",
    "role": null
   },
   "DTHA30FL": {
    "label": "Death After 30 Days from Last Trt Flag",
    "type": "String",
    "mandatory": "No",
    "role": null
   },
   "DTHDOM": {
    "label": "Domain for Date of Death Collection",
    "type": "String",
    "mandatory": "No",
    "role": null
   },
   "DTHB30FL": {
    "label": "Death Within 30 Days of First Trt Flag",
    "type": "String",
    "mandatory": "No",
    "role": null
   },
   "ASEQ": {
    "label": "Analysis Sequence Number",
    "type": "Int32",
    "mandatory": "No",
    "role": "Identifier Variables for BDS Datasets"
   },
   "REGION1": {
    "label": "Geographic Region 1",
    "type": "String",
    "mandatory": "No",
    "role": null
   },
   "DMDTC": {
    "label": "Date/Time of Collection",
    "type": "String",
    "mandatory": "No",
    "role": null
   },
   "DMDY": {
    "label": "Study Day of Collection",
    "type": "Float64",
    "mandatory": "No",
    "role": null
   },
   "AGE": {
    "label": "Age",
    "type": "Float64",
    "mandatory": "No",
    "role": "ADSL Subject Demographics Variables"
   },
   "AGEU": {
    "label": "Age Units",
    "type": "String",
    "mandatory": "No",
    "role": "ADSL Subject Demographics Variables"
   },
   "AGEGR1": {
    "label": "Pooled Age Group 1",
    "type": "String",
    "mandatory": "No",
    "role": null
   },
   "SEX": {
    "label": "Sex",
    "type": "String",
    "mandatory": "No",
    "role": "ADSL Subject Demographics Variables"
   },
   "RACE": {
    "label": "Race",
    "type": "String",
    "mandatory": "No",
    "role": "ADSL Subject Demographics Variables"
   },
   "RACEGR1": {
    "label": "Pooled Race Group 1",
    "type": "String",
    "mandatory": "No",
    "role": null
   },
   "ETHNIC": {
    "label": "Ethnicity",
    "type": "String",
    "mandatory": "No",
    "role": null
   },
   "SAFFL": {
    "label": "Safety Population Flag",
    "type": "String",
    "mandatory": "No",
    "role": "ADSL Population Indicator Variables"
   },
   "ARM": {
    "label": "Description of Planned Arm",
    "type": "String",
    "mandatory": "No",
    "role": "ADSL Treatment Variables"
   },
   "ARMCD": {
    "label": "Planned Arm Code",
    "type": "String",
    "mandatory": "No",
    "role": null
   },
   "ACTARM": {
    "label": "Description of Actual Arm",
    "type": "String",
    "mandatory": "No",
    "role": "ADSL Treatment Variables"
   },
   "ACTARMCD": {
    "label": "Actual Arm Code",
    "type": "String",
    "mandatory": "No",
    "role": null
   },
   "TRTP": {
    "label": "Planned Treatment",
    "type": "String",
    "mandatory": "No",
    "role": "Record-Level Treatment Variables for BDS Datasets"
   },
   "TRTA": {
    "label": "Actual Treatment",
    "type": "String",
    "mandatory": "No",
    "role": "Record-Level Treatment Variables for BDS Datasets"
   },
   "TRT01P": {
    "label": "Planned Treatment for Period 01",
    "type": "String",
    "mandatory": "No",
    "role": null
   },
   "TRT01A": {
    "label": "Actual Treatment for Period 01",
    "type": "String",
    "mandatory": "No",
    "role": null
   },
   "TRTSDT": {
    "label": "Date of First Exposure to Treatment",
    "type": "Date",
    "mandatory": "No",
    "role": "ADSL Treatment Timing Variables"
   },
   "TRTSDTM": {
    "label": "Datetime of First Exposure to Treatment",
    "type": "Datetime",
    "mandatory": "No",
    "role": "ADSL Treatment Timing Variables"
   },
   "TRTSTMF": {
    "label": "Time of First Exposure Imput. Flag",
    "type": "String",
    "mandatory": "No",
    "role": "ADSL Treatment Timing Variables"
   },
   "TRTEDT": {
    "label": "Date of Last Exposure to Treatment",
    "type": "Date",
    "mandatory": "No",
    "role": "ADSL Treatment Timing Variables"
   },
   "TRTEDTM": {
    "label": "Datetime of Last Exposure to Treatment",
    "type": "Datetime",
    "mandatory": "No",
    "role": "ADSL Treatment Timing Variables"
   },
   "TRTETMF": {
    "label": "Time of Last Exposure Imput. Flag",
    "type": "String",
    "mandatory": "No",
    "role": "ADSL Treatment Timing Variables"
   },
   "EOSSTT": {
    "label": "End of Study Status",
    "type": "String",
    "mandatory": "No",
    "role": "ADSL Subject-Level Trial Experience Variables"
   },
   "EOSDT": {
    "label": "End of Study Date",
    "type": "Date",
    "mandatory": "No",
    "role": "ADSL Subject-Level Trial Experience Variables"
   },
   "RFICDTC": {
    "label": "Date/Time of Informed Consent",
    "type": "String",
    "mandatory": "No",
    "role": null
   },
   "RANDDT": {
    "label": "Date of Randomization",
    "type": "Date",
    "mandatory": "No",
    "role": "ADSL Subject-Level Trial Experience Variables"
   },
   "LSTALVDT": {
    "label": "Date Last Known Alive",
    "type": "Date",
    "mandatory": "No",
    "role": "ADSL Subject-Level Trial Experience Variables"
   },
   "TRTDURD": {
    "label": "Total Treatment Duration (Days)",
    "type": "Float64",
    "mandatory": "No",
    "role": "ADSL Subject-Level Trial Experience Variables"
   },
   "DTHDT": {
    "label": "Date of Death",
    "type": "Date",
    "mandatory": "No",
    "role": "ADSL Subject-Level Trial Experience Variables"
   },
   "DTHDTF": {
    "label": "Date of Death Imputation Flag",
    "type": "String",
    "mandatory": "No",
    "role": "ADSL Subject-Level Trial Experience Variables"
   },
   "DTHCAUS": {
    "label": "Cause of Death",
    "type": "String",
    "mandatory": "No",
    "role": null
   },
   "DTHCGR1": {
    "label": "Cause of Death Reason 1",
    "type": "String",
    "mandatory": "No",
    "role": null
   },
   "ADT": {
    "label": "Analysis Date",
    "type": "Date",
    "mandatory": "No",
    "role": "Timing Variables for BDS Datasets"
   },
   "ADY": {
    "label": "Analysis Relative Day",
    "type": "Float64",
    "mandatory": "No",
    "role": "Timing Variables for BDS Datasets"
   },
   "AVISIT": {
    "label": "Analysis Visit",
    "type": "String",
    "mandatory": "No",
    "role": "Timing Variables for BDS Datasets"
   },
   "AVISITN": {
    "label": "Analysis Visit (N)",
    "type": "Float64",
    "mandatory": "No",
    "role": "Timing Variables for BDS Datasets"
   },
   "PARAM": {
    "label": "Parameter",
    "type": "String",
    "mandatory": "Yes",
    "role": "Analysis Parameter Variables for BDS Datasets"
   },
   "PARAMCD": {
    "label": "Parameter Code",
    "type": "String",
    "mandatory": "Yes",
    "role": "Analysis Parameter Variables for BDS Datasets"
   },
   "PARAMN": {
    "label": "Parameter (N)",
    "type": "Float64",
    "mandatory": "No",
    "role": "Analysis Parameter Variables for BDS Datasets"
   },
   "PARCAT1": {
    "label": "Parameter Category 1",
    "type": "String",
    "mandatory": "No",
    "role": null
   },
   "AVAL": {
    "label": "Analysis Value",
    "type": "Float64",
    "mandatory": "No",
    "role": "Analysis Parameter Variables for BDS Datasets"
   },
   "AVALC": {
    "label": "Analysis Value (C)",
    "type": "String",
    "mandatory": "No",
    "role": "Analysis Parameter Variables for BDS Datasets"
   },
   "BASE": {
    "label": "Baseline Value",
    "type": "Float64",
    "mandatory": "No",
    "role": "Analysis Parameter Variables for BDS Datasets"
   },
   "BASEC": {
    "label": "Baseline Value (C)",
    "type": "String",
    "mandatory": "No",
    "role": "Analysis Parameter Variables for BDS Datasets"
   },
   "BASETYPE": {
    "label": "Baseline Type",
    "type": "String",
    "mandatory": "No",
    "role": "Analysis Parameter Variables for BDS Datasets"
   },
   "CHG": {
    "label": "Change from Baseline",
    "type": "Float64",
    "mandatory": "No",
    "role": "Analysis Parameter Variables for BDS Datasets"
   },
   "PCHG": {
    "label": "Percent Change from Baseline",
    "type": "Float64",
    "mandatory": "No",
    "role": "Analysis Parameter Variables for BDS Datasets"
   },
   "R2BASE": {
    "label": "Ratio to Baseline",
    "type": "Float64",
    "mandatory": "No",
    "role": "Analysis Parameter Variables for BDS Datasets"
   },
   "R2ANRLO": {
    "label": "Ratio of Analysis Val compared to ANRLO",
    "type": "Float64",
    "mandatory": "No",
    "role": null
   },
   "R2ANRHI": {
    "label": "Ratio of Analysis Val compared to ANRHI",
    "type": "Float64",
    "mandatory": "No",
    "role": null
   },
   "SHIFT1": {
    "label": "Shift from Baseline to Analysis Value",
    "type": "String",
    "mandatory": "No",
    "role": null
   },
   "SHIFT2": {
    "label": "Shift from Baseline to Overall Grade",
    "type": "String",
    "mandatory": "No",
    "role": null
   },
   "DTYPE": {
    "label": "Derivation Type",
    "type": "String",
    "mandatory": "No",
    "role": "Analysis Descriptor Variables for BDS Datasets"
   },
   "ATOXGR": {
    "label": "Analysis Toxicity Grade",
    "type": "String",
    "mandatory": "No",
    "role": "Toxicity and Range Variables for BDS Datasets"
   },
   "BTOXGR": {
    "label": "Baseline Toxicity Grade",
    "type": "String",
    "mandatory": "No",
    "role": "Toxicity and Range Variables for BDS Datasets"
   },
   "ANRIND": {
    "label": "Analysis Reference Range Indicator",
    "type": "String",
    "mandatory": "No",
    "role": "Toxicity and Range Variables for BDS Datasets"
   },
   "BNRIND": {
    "label": "Baseline Reference Range Indicator",
    "type": "String",
    "mandatory": "No",
    "role": "Toxicity and Range Variables for BDS Datasets"
   },
   "ANRLO": {
    "label": "Analysis Normal Range Lower Limit",
    "type": "Float64",
    "mandatory": "No",
    "role": "Toxicity and Range Variables for BDS Datasets"
   },
   "ANRHI": {
    "label": "Analysis Normal Range Upper Limit",
    "type": "Float64",
    "mandatory": "No",
    "role": "Toxicity and Range Variables for BDS Datasets"
   },
   "ATOXGRL": {
    "label": "Analysis Toxicity Grade Low",
    "type": "String",
    "mandatory": "No",
    "role": null
   },
   "ATOXGRH": {
    "label": "Analysis Toxicity Grade High",
    "type": "String",
    "mandatory": "No",
    "role": null
   },
   "BTOXGRL": {
    "label": "Baseline Toxicity Grade Low",
    "type": "String",
    "mandatory": "No",
    "role": null
   },
   "BTOXGRH": {
    "label": "Baseline Toxicity Grade High",
    "type": "String",
    "mandatory": "No",
    "role": null
   },
   "ATOXDSCL": {
    "label": "Analysis Toxicity Description Low",
    "type": "String",
    "mandatory": "No",
    "role": null
   },
   "ATOXDSCH": {
    "label": "Analysis Toxicity Description High",
    "type": "String",
    "mandatory": "No",
    "role": null
   },
   "ABLFL": {
    "label": "Baseline Record Flag",
    "type": "String",
    "mandatory": "No",
    "role": "Flag Variables for BDS Datasets"
   },
   "ANL01FL": {
    "label": "Analysis Flag 01",
    "type": "String",
    "mandatory": "No",
    "role": null
   },
   "ONTRTFL": {
    "label": "On Treatment Record Flag",
    "type": "String",
    "mandatory": "No",
    "role": "Flag Variables for BDS Datasets"
   },
   "LVOTFL": {
    "label": "Last Value On Treatment Record Flag",
    "type": "String",
    "mandatory": "No",
    "role": "Flag Variables for BDS Datasets"
   },
   "LBSEQ": {
    "label": "Sequence Number",
    "type": "Float64",
    "mandatory": "No",
    "role": null
   },
   "LBTESTCD": {
    "label": "Lab Test or Examination Short Name",
    "type": "String",
    "mandatory": "No",
    "role": null
   },
   "LBTEST": {
    "label": "Lab Test or Examination Name",
    "type": "String",
    "mandatory": "No",
    "role": null
   },
   "LBCAT": {
    "label": "Category for Lab Test",
    "type": "String",
    "mandatory": "No",
    "role": null
   },
   "LBORRES": {
    "label": "Result or Finding in Original Units",
    "type": "String",
    "mandatory": "No",
    "role": null
   },
   "LBORRESU": {
    "label": "Original Units",
    "type": "String",
    "mandatory": "No",
    "role": null
   },
   "LBORNRLO": {
    "label": "Reference Range Lower Limit in Orig Unit",
    "type": "String",
    "mandatory": "No",
    "role": null
   },
   "LBORNRHI": {
    "label": "Reference Range Upper Limit in Orig Unit",
    "type": "String",
    "mandatory": "No",
    "role": null
   },
   "LBSTRESC": {
    "label": "Character Result/Finding in Std Format",
    "type": "String",
    "mandatory": "No",
    "role": null
   },
   "LBSTRESN": {
    "label": "Numeric Result/Finding in Standard Units",
    "type": "Float64",
    "mandatory": "No",
    "role": null
   },
   "LBSTRESU": {
    "label": "Standard Units",
    "type": "String",
    "mandatory": "No",
    "role": null
   },
   "LBSTNRLO": {
    "label": "Reference Range Lower Limit-Std Units",
    "type": "Float64",
    "mandatory": "No",
    "role": null
   },
   "LBSTNRHI": {
    "label": "Reference Range Upper Limit-Std Units",
    "type": "Float64",
    "mandatory": "No",
    "role": null
   },
   "LBNRIND": {
    "label": "Reference Range Indicator",
    "type": "String",
    "mandatory": "No",
    "role": null
   },
   "LBBLFL": {
    "label": "Baseline Flag",
    "type": "String",
    "mandatory": "No",
    "role": null
   },
   "VISITNUM": {
    "label": "Visit Number",
    "type": "Float64",
    "mandatory": "No",
    "role": null
   },
   "VISIT": {
    "label": "Visit Name",
    "type": "String",
    "mandatory": "No",
    "role": null
   },
   "VISITDY": {
    "label": "Planned Study Day of Visit",
    "type": "Float64",
    "mandatory": "No",
    "role": null
   },
   "LBDTC": {
    "label": "Date/Time of Specimen Collection",
    "type": "String",
    "mandatory": "No",
    "role": null
   },
   "LBDY": {
    "label": "Study Day of Specimen Collection",
    "type": "Float64",
    "mandatory": "No",
    "role": null
   }
  }
 },
 "adlb_metabolic": {
  "label": "Laboratory Analysis for Metabolic",
  "structure": "One or more records per subject per analysis parameter per analysis timepoint",
  "n_rows": 371,
  "columns": {
   "STUDYID": {
    "label": "Study Identifier",
    "type": "String",
    "mandatory": "Yes",
    "role": null
   },
   "USUBJID": {
    "label": "Unique Subject Identifier",
    "type": "String",
    "mandatory": "Yes",
    "role": null
   },
   "DOMAIN": {
    "label": "Domain Abbreviation",
    "type": "String",
    "mandatory": "No",
    "role": null
   },
   "TRT01P": {
    "label": "Planned Treatment for Period 01",
    "type": "String",
    "mandatory": "No",
    "role": null
   },
   "TRT01A": {
    "label": "Actual Treatment for Period 01",
    "type": "String",
    "mandatory": "No",
    "role": null
   },
   "TRTSDT": {
    "label": "Date of First Exposure to Treatment",
    "type": "Date",
    "mandatory": "No",
    "role": null
   },
   "TRTEDT": {
    "label": "Date of Last Exposure to Treatment",
    "type": "Date",
    "mandatory": "No",
    "role": null
   },
   "ADT": {
    "label": "Analysis Date",
    "type": "Date",
    "mandatory": "No",
    "role": null
   },
   "ADY": {
    "label": "Analysis Relative Day",
    "type": "Float64",
    "mandatory": "No",
    "role": null
   },
   "AVISIT": {
    "label": "Analysis Visit",
    "type": "String",
    "mandatory": "No",
    "role": null
   },
   "AVISITN": {
    "label": "Analysis Visit (N)",
    "type": "Float64",
    "mandatory": "No",
    "role": null
   },
   "PARAM": {
    "label": "Parameter",
    "type": "String",
    "mandatory": "Yes",
    "role": null
   },
   "PARAMCD": {
    "label": "Parameter Code",
    "type": "String",
    "mandatory": "Yes",
    "role": null
   },
   "PARAMN": {
    "label": "Parameter (N)",
    "type": "Float64",
    "mandatory": "No",
    "role": null
   },
   "PARCAT1": {
    "label": "Parameter Category 1",
    "type": "String",
    "mandatory": "No",
    "role": null
   },
   "PARCAT2": {
    "label": "Parameter Category 2",
    "type": "String",
    "mandatory": "No",
    "role": null
   },
   "AVAL": {
    "label": "Analysis Value",
    "type": "Float64",
    "mandatory": "No",
    "role": null
   },
   "AVALC": {
    "label": "Analysis Value (C)",
    "type": "String",
    "mandatory": "No",
    "role": null
   },
   "ANRLO": {
    "label": "Analysis Normal Range Lower Limit",
    "type": "Float64",
    "mandatory": "No",
    "role": null
   },
   "ANRHI": {
    "label": "Analysis Normal Range Upper Limit",
    "type": "Float64",
    "mandatory": "No",
    "role": null
   },
   "LBSEQ": {
    "label": "Sequence Number",
    "type": "Int32",
    "mandatory": "No",
    "role": null
   },
   "LBTESTCD": {
    "label": "Lab Test or Examination Short Name",
    "type": "String",
    "mandatory": "No",
    "role": null
   },
   "LBTEST": {
    "label": "Lab Test or Examination Name",
    "type": "String",
    "mandatory": "No",
    "role": null
   },
   "LBCAT": {
    "label": "Category for Lab Test",
    "type": "String",
    "mandatory": "No",
    "role": null
   },
   "LBORRES": {
    "label": "Result or Finding in Original Units",
    "type": "String",
    "mandatory": "No",
    "role": null
   },
   "LBORRESU": {
    "label": "Original Units",
    "type": "String",
    "mandatory": "No",
    "role": null
   },
   "LBORNRLO": {
    "label": "Reference Range Lower Limit in Orig Unit",
    "type": "String",
    "mandatory": "No",
    "role": null
   },
   "LBORNRHI": {
    "label": "Reference Range Upper Limit in Orig Unit",
    "type": "String",
    "mandatory": "No",
    "role": null
   },
   "LBSTRESC": {
    "label": "Character Result/Finding in Std Format",
    "type": "String",
    "mandatory": "No",
    "role": null
   },
   "LBSTRESN": {
    "label": "Numeric Result/Finding in Standard Units",
    "type": "Float64",
    "mandatory": "No",
    "role": null
   },
   "LBSTRESU": {
    "label": "Standard Units",
    "type": "String",
    "mandatory": "No",
    "role": null
   },
   "LBSTNRLO": {
    "label": "Reference Range Lower Limit-Std Units",
    "type": "Float64",
    "mandatory": "No",
    "role": null
   },
   "LBSTNRHI": {
    "label": "Reference Range Upper Limit-Std Units",
    "type": "Float64",
    "mandatory": "No",
    "role": null
   },
   "LBNRIND": {
    "label": "Reference Range Indicator",
    "type": "String",
    "mandatory": "No",
    "role": null
   },
   "LBBLFL": {
    "label": "Baseline Flag",
    "type": "String",
    "mandatory": "No",
    "role": null
   },
   "LBFAST": {
    "label": "Fasting Status",
    "type": "String",
    "mandatory": "No",
    "role": null
   },
   "VISITNUM": {
    "label": "Visit Number",
    "type": "Float64",
    "mandatory": "No",
    "role": null
   },
   "VISIT": {
    "label": "Visit Name",
    "type": "String",
    "mandatory": "No",
    "role": null
   },
   "VISITDY": {
    "label": "Planned Study Day of Visit",
    "type": "Float64",
    "mandatory": "No",
    "role": null
   },
   "LBDTC": {
    "label": "Date/Time of Specimen Collection",
    "type": "String",
    "mandatory": "No",
    "role": null
   },
   "LBDY": {
    "label": "Study Day of Specimen Collection",
    "type": "Float64",
    "mandatory": "No",
    "role": null
   },
   "BMI": {
    "label": "Body Mass Index (kg/m2)",
    "type": "Float64",
    "mandatory": "No",
    "role": null
   },
   "WSTCIR": {
    "label": "Waist Circumference (cm)",
    "type": "Float64",
    "mandatory": "No",
    "role": null
   }
  }
 },
 "adlb_neuro": {
  "label": "Laboratory Analysis for Neuroscience",
  "structure": "One or more records per subject per analysis parameter per analysis visit",
  "n_rows": 185,
  "columns": {
   "STUDYID": {
    "label": "Study Identifier",
    "type": "String",
    "mandatory": "Yes",
    "role": "Identifier Variables for BDS Datasets"
   },
   "USUBJID": {
    "label": "Unique Subject Identifier",
    "type": "String",
    "mandatory": "Yes",
    "role": "Identifier Variables for BDS Datasets"
   },
   "DOMAIN": {
    "label": "Domain Abbreviation",
    "type": "String",
    "mandatory": "No",
    "role": null
   },
   "TRT01P": {
    "label": "Planned Treatment for Period 01",
    "type": "String",
    "mandatory": "No",
    "role": null
   },
   "TRT01A": {
    "label": "Actual Treatment for Period 01",
    "type": "String",
    "mandatory": "No",
    "role": null
   },
   "TRTSDT": {
    "label": "Date of First Exposure to Treatment",
    "type": "Date",
    "mandatory": "No",
    "role": "ADSL Treatment Timing Variables"
   },
   "TRTEDT": {
    "label": "Date of Last Exposure to Treatment",
    "type": "Date",
    "mandatory": "No",
    "role": "ADSL Treatment Timing Variables"
   },
   "ADT": {
    "label": "Analysis Date",
    "type": "Date",
    "mandatory": "No",
    "role": "Timing Variables for BDS Datasets"
   },
   "ADY": {
    "label": "Analysis Relative Day",
    "type": "Float64",
    "mandatory": "No",
    "role": "Timing Variables for BDS Datasets"
   },
   "AVISIT": {
    "label": "Analysis Visit",
    "type": "String",
    "mandatory": "No",
    "role": "Timing Variables for BDS Datasets"
   },
   "AVISITN": {
    "label": "Analysis Visit (N)",
    "type": "Float64",
    "mandatory": "No",
    "role": "Timing Variables for BDS Datasets"
   },
   "PARAM": {
    "label": "Parameter",
    "type": "String",
    "mandatory": "Yes",
    "role": "Analysis Parameter Variables for BDS Datasets"
   },
   "PARAMCD": {
    "label": "Parameter Code",
    "type": "String",
    "mandatory": "Yes",
    "role": "Analysis Parameter Variables for BDS Datasets"
   },
   "PARAMN": {
    "label": "Parameter (N)",
    "type": "Float64",
    "mandatory": "No",
    "role": "Analysis Parameter Variables for BDS Datasets"
   },
   "AVAL": {
    "label": "Analysis Value",
    "type": "Float64",
    "mandatory": "No",
    "role": "Analysis Parameter Variables for BDS Datasets"
   },
   "AVALC": {
    "label": "Analysis Value (C)",
    "type": "String",
    "mandatory": "No",
    "role": "Analysis Parameter Variables for BDS Datasets"
   },
   "ANRLO": {
    "label": "Analysis Normal Range Lower Limit",
    "type": "Float64",
    "mandatory": "No",
    "role": null
   },
   "ANRHI": {
    "label": "Analysis Normal Range Upper Limit",
    "type": "Float64",
    "mandatory": "No",
    "role": null
   },
   "BASE": {
    "label": "Baseline Value",
    "type": "Float64",
    "mandatory": "No",
    "role": "Analysis Parameter Variables for BDS Datasets"
   },
   "BASEC": {
    "label": "Baseline Value (C)",
    "type": "String",
    "mandatory": "No",
    "role": "Analysis Parameter Variables for BDS Datasets"
   },
   "BASETYPE": {
    "label": "Baseline Type",
    "type": "String",
    "mandatory": "No",
    "role": null
   },
   "CHG": {
    "label": "Change from Baseline",
    "type": "Float64",
    "mandatory": "No",
    "role": "Analysis Parameter Variables for BDS Datasets"
   },
   "PCHG": {
    "label": "Percent Change from Baseline",
    "type": "Float64",
    "mandatory": "No",
    "role": "Analysis Parameter Variables for BDS Datasets"
   },
   "ABLFL": {
    "label": "Baseline Record Flag",
    "type": "String",
    "mandatory": "No",
    "role": "Flag Variables for BDS Datasets"
   },
   "ANL01FL": {
    "label": "Analysis Flag 01",
    "type": "String",
    "mandatory": "No",
    "role": null
   },
   "ANL02FL": {
    "label": "Analysis Flag 02",
    "type": "String",
    "mandatory": "No",
    "role": null
   },
   "ONTRTFL": {
    "label": "On Treatment Record Flag",
    "type": "String",
    "mandatory": "No",
    "role": "Flag Variables for BDS Datasets"
   },
   "ASEQ": {
    "label": "Analysis Sequence Number",
    "type": "Int32",
    "mandatory": "No",
    "role": "Identifier Variables for BDS Datasets"
   },
   "LBSEQ": {
    "label": "Sequence Number",
    "type": "Int32",
    "mandatory": "No",
    "role": null
   },
   "LBTESTCD": {
    "label": "Lab Test or Examination Short Name",
    "type": "String",
    "mandatory": "No",
    "role": null
   },
   "LBTEST": {
    "label": "Lab Test or Examination Name",
    "type": "String",
    "mandatory": "No",
    "role": null
   },
   "LBCAT": {
    "label": "Category for Lab Test",
    "type": "String",
    "mandatory": "No",
    "role": null
   },
   "LBORRES": {
    "label": "Result or Finding in Original Units",
    "type": "String",
    "mandatory": "No",
    "role": null
   },
   "LBORRESU": {
    "label": "Original Units",
    "type": "String",
    "mandatory": "No",
    "role": null
   },
   "LBORNRLO": {
    "label": "Reference Range Lower Limit in Orig Unit",
    "type": "String",
    "mandatory": "No",
    "role": null
   },
   "LBORNRHI": {
    "label": "Reference Range Upper Limit in Orig Unit",
    "type": "String",
    "mandatory": "No",
    "role": null
   },
   "LBSTRESC": {
    "label": "Character Result/Finding in Std Format",
    "type": "String",
    "mandatory": "No",
    "role": null
   },
   "LBSTRESN": {
    "label": "Numeric Result/Finding in Standard Units",
    "type": "Float64",
    "mandatory": "No",
    "role": null
   },
   "LBSTRESU": {
    "label": "Standard Units",
    "type": "String",
    "mandatory": "No",
    "role": null
   },
   "LBSTNRLO": {
    "label": "Reference Range Lower Limit-Std Units",
    "type": "Float64",
    "mandatory": "No",
    "role": null
   },
   "LBSTNRHI": {
    "label": "Reference Range Upper Limit-Std Units",
    "type": "Float64",
    "mandatory": "No",
    "role": null
   },
   "LBNRIND": {
    "label": "Reference Range Indicator",
    "type": "String",
    "mandatory": "No",
    "role": null
   },
   "LBBLFL": {
    "label": "Baseline Flag",
    "type": "String",
    "mandatory": "No",
    "role": null
   },
   "VISITNUM": {
    "label": "Visit Number",
    "type": "Float64",
    "mandatory": "No",
    "role": null
   },
   "VISIT": {
    "label": "Visit Name",
    "type": "String",
    "mandatory": "No",
    "role": null
   },
   "VISITDY": {
    "label": "Planned Study Day of Visit",
    "type": "Float64",
    "mandatory": "No",
    "role": null
   },
   "LBDTC": {
    "label": "Date/Time of Specimen Collection",
    "type": "String",
    "mandatory": "No",
    "role": null
   },
   "LBDY": {
    "label": "Study Day of Specimen Collection",
    "type": "Float64",
    "mandatory": "No",
    "role": null
   }
  }
 },
 "adlbhy": {
  "label": "Analysis of Lab Hy's Law",
  "structure": "One or more records per subject per analysis parameter per analysis timepoint",
  "n_rows": 251,
  "columns": {
   "STUDYID": {
    "label": "Study Identifier",
    "type": "String",
    "mandatory": "Yes",
    "role": "Identifier Variables for BDS Datasets"
   },
   "USUBJID": {
    "label": "Unique Subject Identifier",
    "type": "String",
    "mandatory": "Yes",
    "role": "Identifier Variables for BDS Datasets"
   },
   "TRT01A": {
    "label": "Actual Treatment for Period 01",
    "type": "String",
    "mandatory": "No",
    "role": null
   },
   "ADT": {
    "label": "Analysis Date",
    "type": "Date",
    "mandatory": "No",
    "role": "Timing Variables for BDS Datasets"
   },
   "ADY": {
    "label": "Analysis Relative Day",
    "type": "Float64",
    "mandatory": "No",
    "role": "Timing Variables for BDS Datasets"
   },
   "AVISIT": {
    "label": "Analysis Visit",
    "type": "String",
    "mandatory": "No",
    "role": "Timing Variables for BDS Datasets"
   },
   "PARAM": {
    "label": "Parameter",
    "type": "String",
    "mandatory": "Yes",
    "role": "Analysis Parameter Variables for BDS Datasets"
   },
   "PARAMCD": {
    "label": "Parameter Code",
    "type": "String",
    "mandatory": "Yes",
    "role": "Analysis Parameter Variables for BDS Datasets"
   },
   "AVAL": {
    "label": "Analysis Value",
    "type": "Float64",
    "mandatory": "No",
    "role": "Analysis Parameter Variables for BDS Datasets"
   },
   "AVALC": {
    "label": "Analysis Value (C)",
    "type": "String",
    "mandatory": "No",
    "role": "Analysis Parameter Variables for BDS Datasets"
   },
   "CRIT1": {
    "label": "Analysis Criterion 1",
    "type": "String",
    "mandatory": "No",
    "role": null
   },
   "CRIT1FL": {
    "label": "Criterion 1 Evaluation Result Flag",
    "type": "String",
    "mandatory": "No",
    "role": null
   },
   "ANRHI": {
    "label": "Analysis Normal Range Upper Limit",
    "type": "Float64",
    "mandatory": "No",
    "role": "Toxicity and Range Variables for BDS Datasets"
   },
   "LBSEQ": {
    "label": "Sequence Number",
    "type": "Float64",
    "mandatory": "No",
    "role": null
   }
  }
 },
 "admh": {
  "label": "Medical History Analysis",
  "structure": null,
  "n_rows": 1818,
  "columns": {
   "STUDYID": {
    "label": "Study Identifier",
    "type": "String",
    "mandatory": "No",
    "role": null
   },
   "USUBJID": {
    "label": "Unique Subject Identifier",
    "type": "String",
    "mandatory": "No",
    "role": null
   },
   "SUBJID": {
    "label": "Subject Identifier for the Study",
    "type": "String",
    "mandatory": "No",
    "role": null
   },
   "SITEID": {
    "label": "Study Site Identifier",
    "type": "String",
    "mandatory": "No",
    "role": null
   },
   "COUNTRY": {
    "label": "Country",
    "type": "String",
    "mandatory": "No",
    "role": null
   },
   "DOMAIN": {
    "label": "Domain Abbreviation",
    "type": "String",
    "mandatory": "No",
    "role": null
   },
   "RFSTDTC": {
    "label": "Subject Reference Start Date/Time",
    "type": "String",
    "mandatory": "No",
    "role": null
   },
   "RFENDTC": {
    "label": "Subject Reference End Date/Time",
    "type": "String",
    "mandatory": "No",
    "role": null
   },
   "RFXSTDTC": {
    "label": "Date/Time of First Study Treatment",
    "type": "String",
    "mandatory": "No",
    "role": null
   },
   "RFXENDTC": {
    "label": "Date/Time of Last Study Treatment",
    "type": "String",
    "mandatory": "No",
    "role": null
   },
   "RFPENDTC": {
    "label": "Date/Time of End of Participation",
    "type": "String",
    "mandatory": "No",
    "role": null
   },
   "SCRFDT": {
    "label": "Screen Failure Date",
    "type": "Date",
    "mandatory": "No",
    "role": null
   },
   "FRVDT": {
    "label": "Final Retrieval Visit Date",
    "type": "Date",
    "mandatory": "No",
    "role": null
   },
   "DTHDTC": {
    "label": "Date/Time of Death",
    "type": "String",
    "mandatory": "No",
    "role": null
   },
   "DTHADY": {
    "label": "Relative Day of Death",
    "type": "Float64",
    "mandatory": "No",
    "role": null
   },
   "DTHFL": {
    "label": "Subject Death Flag",
    "type": "String",
    "mandatory": "No",
    "role": null
   },
   "LDDTHELD": {
    "label": "Elapsed Days from Last Dose to Death",
    "type": "Float64",
    "mandatory": "No",
    "role": null
   },
   "LDDTHGR1": {
    "label": "Last Dose to Death - Days Elapsed Grp 1",
    "type": "String",
    "mandatory": "No",
    "role": null
   },
   "DTH30FL": {
    "label": "Death Within 30 Days of Last Trt Flag",
    "type": "String",
    "mandatory": "No",
    "role": null
   },
   "DTHA30FL": {
    "label": "Death After 30 Days from Last Trt Flag",
    "type": "String",
    "mandatory": "No",
    "role": null
   },
   "DTHDOM": {
    "label": "Domain for Date of Death Collection",
    "type": "String",
    "mandatory": "No",
    "role": null
   },
   "DTHB30FL": {
    "label": "Death Within 30 Days of First Trt Flag",
    "type": "String",
    "mandatory": "No",
    "role": null
   },
   "REGION1": {
    "label": "Geographic Region 1",
    "type": "String",
    "mandatory": "No",
    "role": null
   },
   "DMDTC": {
    "label": "Date/Time of Collection",
    "type": "String",
    "mandatory": "No",
    "role": null
   },
   "DMDY": {
    "label": "Study Day of Collection",
    "type": "Float64",
    "mandatory": "No",
    "role": null
   },
   "AGE": {
    "label": "Age",
    "type": "Float64",
    "mandatory": "No",
    "role": null
   },
   "AGEU": {
    "label": "Age Units",
    "type": "String",
    "mandatory": "No",
    "role": null
   },
   "AGEGR1": {
    "label": "Pooled Age Group 1",
    "type": "String",
    "mandatory": "No",
    "role": null
   },
   "SEX": {
    "label": "Sex",
    "type": "String",
    "mandatory": "No",
    "role": null
   },
   "RACE": {
    "label": "Race",
    "type": "String",
    "mandatory": "No",
    "role": null
   },
   "RACEGR1": {
    "label": "Pooled Race Group 1",
    "type": "String",
    "mandatory": "No",
    "role": null
   },
   "ETHNIC": {
    "label": "Ethnicity",
    "type": "String",
    "mandatory": "No",
    "role": null
   },
   "SAFFL": {
    "label": "Safety Population Flag",
    "type": "String",
    "mandatory": "No",
    "role": null
   },
   "ARM": {
    "label": "Description of Planned Arm",
    "type": "String",
    "mandatory": "No",
    "role": null
   },
   "ARMCD": {
    "label": "Planned Arm Code",
    "type": "String",
    "mandatory": "No",
    "role": null
   },
   "ACTARM": {
    "label": "Description of Actual Arm",
    "type": "String",
    "mandatory": "No",
    "role": null
   },
   "ACTARMCD": {
    "label": "Actual Arm Code",
    "type": "String",
    "mandatory": "No",
    "role": null
   },
   "TRTP": {
    "label": "Planned Treatment",
    "type": "String",
    "mandatory": "No",
    "role": null
   },
   "TRTA": {
    "label": "Actual Treatment",
    "type": "String",
    "mandatory": "No",
    "role": null
   },
   "TRT01P": {
    "label": "Planned Treatment for Period 01",
    "type": "String",
    "mandatory": "No",
    "role": null
   },
   "TRT01A": {
    "label": "Actual Treatment for Period 01",
    "type": "String",
    "mandatory": "No",
    "role": null
   },
   "TRTSDT": {
    "label": "Date of First Exposure to Treatment",
    "type": "Date",
    "mandatory": "No",
    "role": null
   },
   "TRTSDTM": {
    "label": "Datetime of First Exposure to Treatment",
    "type": "Datetime",
    "mandatory": "No",
    "role": null
   },
   "TRTSTMF": {
    "label": "Time of First Exposure Imput. Flag",
    "type": "String",
    "mandatory": "No",
    "role": null
   },
   "TRTEDT": {
    "label": "Date of Last Exposure to Treatment",
    "type": "Date",
    "mandatory": "No",
    "role": null
   },
   "TRTEDTM": {
    "label": "Datetime of Last Exposure to Treatment",
    "type": "Datetime",
    "mandatory": "No",
    "role": null
   },
   "TRTETMF": {
    "label": "Treatment End Datetime Imput Flag",
    "type": "String",
    "mandatory": "No",
    "role": null
   },
   "APHASE": {
    "label": "Phase",
    "type": "String",
    "mandatory": "No",
    "role": null
   },
   "APHASEN": {
    "label": "Description of Phase N",
    "type": "Float64",
    "mandatory": "No",
    "role": null
   },
   "EOSSTT": {
    "label": "End of Study Status",
    "type": "String",
    "mandatory": "No",
    "role": null
   },
   "EOSDT": {
    "label": "End of Study Date",
    "type": "Date",
    "mandatory": "No",
    "role": null
   },
   "RFICDTC": {
    "label": "Date/Time of Informed Consent",
    "type": "String",
    "mandatory": "No",
    "role": null
   },
   "RANDDT": {
    "label": "Date of Randomization",
    "type": "Date",
    "mandatory": "No",
    "role": null
   },
   "LSTALVDT": {
    "label": "Date Last Known Alive",
    "type": "Date",
    "mandatory": "No",
    "role": null
   },
   "TRTDURD": {
    "label": "Total Treatment Duration (Days)",
    "type": "Float64",
    "mandatory": "No",
    "role": null
   },
   "DTHDT": {
    "label": "Date of Death",
    "type": "Date",
    "mandatory": "No",
    "role": null
   },
   "DTHDTF": {
    "label": "Date of Death Imputation Flag",
    "type": "String",
    "mandatory": "No",
    "role": "ADSL Subject-Level Trial Experience Variables"
   },
   "DTHCAUS": {
    "label": "Cause of Death",
    "type": "String",
    "mandatory": "No",
    "role": null
   },
   "DTHCGR1": {
    "label": "Cause of Death Reason 1",
    "type": "String",
    "mandatory": "No",
    "role": null
   },
   "MHSEQ": {
    "label": "Sequence Number",
    "type": "Float64",
    "mandatory": "No",
    "role": null
   },
   "MHTERM": {
    "label": "Reported Term for the Medical History",
    "type": "String",
    "mandatory": "No",
    "role": null
   },
   "MHTERMN": {
    "label": "Medical History Term (N)",
    "type": "Float64",
    "mandatory": "No",
    "role": null
   },
   "MHDECOD": {
    "label": "Dictionary-Derived Term",
    "type": "String",
    "mandatory": "No",
    "role": null
   },
   "MHBODSYS": {
    "label": "Body System or Organ Class",
    "type": "String",
    "mandatory": "No",
    "role": null
   },
   "MHLLT": {
    "label": "Lowest Level Term",
    "type": "String",
    "mandatory": "No",
    "role": null
   },
   "MHHLT": {
    "label": "High Level Term",
    "type": "String",
    "mandatory": "No",
    "role": null
   },
   "MHHLGT": {
    "label": "High Level Group Term",
    "type": "String",
    "mandatory": "No",
    "role": null
   },
   "MHCAT": {
    "label": "Category for Medical History",
    "type": "String",
    "mandatory": "No",
    "role": null
   },
   "MHSTDTC": {
    "label": "Start Date/Time of Medical History Event",
    "type": "String",
    "mandatory": "No",
    "role": null
   },
   "ASTDT": {
    "label": "Analysis Start Date",
    "type": "Date",
    "mandatory": "No",
    "role": null
   },
   "MHENDTC": {
    "label": "End Date/Time of Medical History Event",
    "type": "String",
    "mandatory": "No",
    "role": null
   },
   "AENDT": {
    "label": "Analysis End Date",
    "type": "Date",
    "mandatory": "No",
    "role": null
   },
   "ASTDY": {
    "label": "Analysis Start Relative Day",
    "type": "Float64",
    "mandatory": "No",
    "role": null
   },
   "AENDY": {
    "label": "Analysis End Relative Day",
    "type": "Float64",
    "mandatory": "No",
    "role": null
   },
   "MHOCCUR": {
    "label": "Medical History Occurrence",
    "type": "String",
    "mandatory": "No",
    "role": null
   },
   "MHPRESP": {
    "label": "Medical History Event Pre-Specified",
    "type": "String",
    "mandatory": "No",
    "role": null
   },
   "ANL01FL": {
    "label": "Analysis Flag 01",
    "type": "String",
    "mandatory": "No",
    "role": null
   },
   "AOCCFL": {
    "label": "1st Occurrence within Subject Flag",
    "type": "String",
    "mandatory": "No",
    "role": null
   },
   "AOCCPFL": {
    "label": "1st Occurrence of Preferred Term Flag",
    "type": "String",
    "mandatory": "No",
    "role": null
   },
   "AOCCSFL": {
    "label": "1st Occurrence of SOC Flag",
    "type": "String",
    "mandatory": "No",
    "role": null
   },
   "MHSPID": {
    "label": "Sponsor-Defined Identifier",
    "type": "String",
    "mandatory": "No",
    "role": null
   },
   "MHSEV": {
    "label": "Severity/Intensity",
    "type": "String",
    "mandatory": "No",
    "role": null
   },
   "VISITNUM": {
    "label": "Visit Number",
    "type": "Float64",
    "mandatory": "No",
    "role": null
   },
   "VISIT": {
    "label": "Visit Name",
    "type": "String",
    "mandatory": "No",
    "role": null
   },
   "VISITDY": {
    "label": "Planned Study Day of Visit",
    "type": "Float64",
    "mandatory": "No",
    "role": null
   },
   "MHDTC": {
    "label": "Date/Time of History Collection",
    "type": "String",
    "mandatory": "No",
    "role": null
   },
   "MHDY": {
    "label": "Study Day of History Collection",
    "type": "Float64",
    "mandatory": "No",
    "role": null
   },
   "MHSTRTPT": {
    "label": "Start Relative to Reference Time Point",
    "type": "String",
    "mandatory": "No",
    "role": null
   },
   "MHENRTPT": {
    "label": "End Relative to Reference Time Point",
    "type": "String",
    "mandatory": "No",
    "role": null
   },
   "MHSTTPT": {
    "label": "Start Reference Time Point",
    "type": "String",
    "mandatory": "No",
    "role": null
   },
   "MHENTPT": {
    "label": "End Reference Time Point",
    "type": "String",
    "mandatory": "No",
    "role": null
   },
   "MHENRF": {
    "label": "End Relative to Reference Period",
    "type": "String",
    "mandatory": "No",
    "role": null
   },
   "MHSTAT": {
    "label": "Completion Status",
    "type": "String",
    "mandatory": "No",
    "role": null
   },
   "ADT": {
    "label": "Analysis Date",
    "type": "Date",
    "mandatory": "No",
    "role": null
   },
   "ADY": {
    "label": "Analysis Relative Day",
    "type": "Float64",
    "mandatory": "No",
    "role": null
   },
   "SMQ02NAM": {
    "label": "SMQ 02 Name",
    "type": "String",
    "mandatory": "No",
    "role": null
   },
   "SMQ02CD": {
    "label": "SMQ 02 Code",
    "type": "Int32",
    "mandatory": "No",
    "role": null
   },
   "SMQ02SC": {
    "label": "SMQ 02 Scope",
    "type": "String",
    "mandatory": "No",
    "role": null
   },
   "SMQ02SCN": {
    "label": "SMQ 02 Scope (N)",
    "type": "Int32",
    "mandatory": "No",
    "role": null
   },
   "SMQ03NAM": {
    "label": "SMQ 03 Name",
    "type": "String",
    "mandatory": "No",
    "role": null
   },
   "SMQ03CD": {
    "label": "SMQ 03 Code",
    "type": "Int32",
    "mandatory": "No",
    "role": null
   },
   "SMQ03SC": {
    "label": "SMQ 03 Scope",
    "type": "String",
    "mandatory": "No",
    "role": null
   },
   "SMQ03SCN": {
    "label": "SMQ 03 Scope (N)",
    "type": "Int32",
    "mandatory": "No",
    "role": null
   },
   "SMQ05NAM": {
    "label": "SMQ 05 Name",
    "type": "String",
    "mandatory": "No",
    "role": null
   },
   "SMQ05CD": {
    "label": "SMQ 05 Code",
    "type": "Int32",
    "mandatory": "No",
    "role": null
   },
   "SMQ05SC": {
    "label": "SMQ 05 Scope",
    "type": "String",
    "mandatory": "No",
    "role": null
   },
   "SMQ05SCN": {
    "label": "SMQ 05 Scope (N)",
    "type": "Int32",
    "mandatory": "No",
    "role": null
   },
   "CQ01NAM": {
    "label": "Customized Query 01 Name",
    "type": "String",
    "mandatory": "No",
    "role": null
   },
   "CQ04NAM": {
    "label": "Customized Query 04 Name",
    "type": "String",
    "mandatory": "No",
    "role": null
   },
   "CQ04CD": {
    "label": "Customized Query 04 Code",
    "type": "Int32",
    "mandatory": "No",
    "role": null
   },
   "AHIST": {
    "label": "Response of Med Hx (past or current)",
    "type": "String",
    "mandatory": "No",
    "role": null
   },
   "AOCPFL": {
    "label": "1st Occur w/in Trt Prd FL",
    "type": "String",
    "mandatory": "No",
    "role": null
   },
   "AOCPSFL": {
    "label": "1st Occur of SOC w/in Trt Prd FL",
    "type": "String",
    "mandatory": "No",
    "role": null
   },
   "AOCPPFL": {
    "label": "1st Occur of PT w/in Trt Prd FL",
    "type": "String",
    "mandatory": "No",
    "role": null
   }
  }
 },
 "adnv_neuro": {
  "label": "Nervous System Analysis Dataset",
  "structure": "One or more records per subject per analysis parameter per analysis timepoint",
  "n_rows": 30,
  "columns": {
   "STUDYID": {
    "label": "Study Identifier",
    "type": "String",
    "mandatory": "Yes",
    "role": "Identifier Variables for BDS Datasets"
   },
   "USUBJID": {
    "label": "Unique Subject Identifier",
    "type": "String",
    "mandatory": "Yes",
    "role": "Identifier Variables for BDS Datasets"
   },
   "DOMAIN": {
    "label": "Domain Abbreviation",
    "type": "String",
    "mandatory": "No",
    "role": null
   },
   "ASEQ": {
    "label": "Analysis Sequence Number",
    "type": "Int32",
    "mandatory": "No",
    "role": "Identifier Variables for BDS Datasets"
   },
   "AGE": {
    "label": "Age",
    "type": "Float64",
    "mandatory": "No",
    "role": null
   },
   "SEX": {
    "label": "Sex",
    "type": "String",
    "mandatory": "No",
    "role": null
   },
   "TRT01P": {
    "label": "Planned Treatment for Period 01",
    "type": "String",
    "mandatory": "No",
    "role": null
   },
   "TRT01A": {
    "label": "Actual Treatment for Period 01",
    "type": "String",
    "mandatory": "No",
    "role": null
   },
   "TRTSDT": {
    "label": "Date of First Exposure to Treatment",
    "type": "Date",
    "mandatory": "No",
    "role": "ADSL Treatment Timing Variables"
   },
   "TRTEDT": {
    "label": "Date of Last Exposure to Treatment",
    "type": "Date",
    "mandatory": "No",
    "role": "ADSL Treatment Timing Variables"
   },
   "ADT": {
    "label": "Analysis Date",
    "type": "Date",
    "mandatory": "No",
    "role": "Timing Variables for BDS Datasets"
   },
   "ADY": {
    "label": "Analysis Relative Day",
    "type": "Float64",
    "mandatory": "No",
    "role": "Timing Variables for BDS Datasets"
   },
   "AVISIT": {
    "label": "Analysis Visit",
    "type": "String",
    "mandatory": "No",
    "role": "Timing Variables for BDS Datasets"
   },
   "AVISITN": {
    "label": "Analysis Visit (N)",
    "type": "Float64",
    "mandatory": "No",
    "role": "Timing Variables for BDS Datasets"
   },
   "PARAMN": {
    "label": "Parameter (N)",
    "type": "Float64",
    "mandatory": "No",
    "role": "Analysis Parameter Variables for BDS Datasets"
   },
   "PARAM": {
    "label": "Parameter",
    "type": "String",
    "mandatory": "Yes",
    "role": "Analysis Parameter Variables for BDS Datasets"
   },
   "PARAMCD": {
    "label": "Parameter Code",
    "type": "String",
    "mandatory": "Yes",
    "role": "Analysis Parameter Variables for BDS Datasets"
   },
   "AVAL": {
    "label": "Analysis Value",
    "type": "Float64",
    "mandatory": "No",
    "role": "Analysis Parameter Variables for BDS Datasets"
   },
   "BASE": {
    "label": "Baseline Value",
    "type": "Float64",
    "mandatory": "No",
    "role": "Analysis Parameter Variables for BDS Datasets"
   },
   "BASETYPE": {
    "label": "Baseline Type",
    "type": "String",
    "mandatory": "No",
    "role": null
   },
   "CRIT1": {
    "label": "Analysis Criterion 1",
    "type": "String",
    "mandatory": "No",
    "role": null
   },
   "CRIT1FL": {
    "label": "Criterion 1 Evaluation Result Flag",
    "type": "String",
    "mandatory": "No",
    "role": null
   },
   "ABLFL": {
    "label": "Baseline Record Flag",
    "type": "String",
    "mandatory": "No",
    "role": "Flag Variables for BDS Datasets"
   },
   "ANL01FL": {
    "label": "Analysis Flag 01",
    "type": "String",
    "mandatory": "No",
    "role": null
   },
   "ANL02FL": {
    "label": "Analysis Flag 02",
    "type": "String",
    "mandatory": "No",
    "role": null
   },
   "NVSEQ": {
    "label": "Sequence Number",
    "type": "Int32",
    "mandatory": "No",
    "role": null
   },
   "NVLNKID": {
    "label": "Link ID",
    "type": "Float64",
    "mandatory": "No",
    "role": null
   },
   "NVTESTCD": {
    "label": "Short Name of Nervous System Test",
    "type": "String",
    "mandatory": "No",
    "role": null
   },
   "NVTEST": {
    "label": "Name of Nervous System Test",
    "type": "String",
    "mandatory": "No",
    "role": null
   },
   "NVCAT": {
    "label": "Category for Nervous System Test",
    "type": "String",
    "mandatory": "No",
    "role": null
   },
   "NVLOC": {
    "label": "Location Used for the Measurement",
    "type": "String",
    "mandatory": "No",
    "role": null
   },
   "NVNAM": {
    "label": "Vendor Name",
    "type": "String",
    "mandatory": "No",
    "role": null
   },
   "NVORRES": {
    "label": "Result or Finding in Original Units",
    "type": "String",
    "mandatory": "No",
    "role": null
   },
   "NVORRESU": {
    "label": "Original Units",
    "type": "String",
    "mandatory": "No",
    "role": null
   },
   "NVSTRESC": {
    "label": "Character Result/Finding in Std Format",
    "type": "String",
    "mandatory": "No",
    "role": null
   },
   "NVSTRESN": {
    "label": "Numeric Result/Finding in Standard Units",
    "type": "Float64",
    "mandatory": "No",
    "role": null
   },
   "NVSTRESU": {
    "label": "Standard Units",
    "type": "String",
    "mandatory": "No",
    "role": null
   },
   "NVMETHOD": {
    "label": "Method of Test or Examination",
    "type": "String",
    "mandatory": "No",
    "role": null
   },
   "NVLOBXFL": {
    "label": "Last Observation Before Exposure Flag",
    "type": "String",
    "mandatory": "No",
    "role": null
   },
   "VISITNUM": {
    "label": "Visit Number",
    "type": "Float64",
    "mandatory": "No",
    "role": null
   },
   "VISIT": {
    "label": "Visit Name",
    "type": "String",
    "mandatory": "No",
    "role": null
   },
   "NVDTC": {
    "label": "Date/Time of Collection",
    "type": "String",
    "mandatory": "No",
    "role": null
   },
   "NVDY": {
    "label": "Study Day of Visit/Collection/Exam",
    "type": "Float64",
    "mandatory": "No",
    "role": null
   }
  }
 },
 "adoe_ophtha": {
  "label": "Exam Analysis for Ophthalmology",
  "structure": "One or more records per subject per analysis parameter per analysis timepoint",
  "n_rows": 19136,
  "columns": {
   "STUDYID": {
    "label": "Study Identifier",
    "type": "String",
    "mandatory": "Yes",
    "role": "Identifier Variables for BDS Datasets"
   },
   "USUBJID": {
    "label": "Unique Subject Identifier",
    "type": "String",
    "mandatory": "Yes",
    "role": "Identifier Variables for BDS Datasets"
   },
   "SUBJID": {
    "label": "Subject Identifier for the Study",
    "type": "String",
    "mandatory": "No",
    "role": "Identifier Variables for BDS Datasets"
   },
   "SITEID": {
    "label": "Study Site Identifier",
    "type": "String",
    "mandatory": "No",
    "role": "Identifier Variables for BDS Datasets"
   },
   "COUNTRY": {
    "label": "Country",
    "type": "String",
    "mandatory": "No",
    "role": null
   },
   "DOMAIN": {
    "label": "Domain Abbreviation",
    "type": "String",
    "mandatory": "No",
    "role": null
   },
   "RFSTDTC": {
    "label": "Subject Reference Start Date/Time",
    "type": "String",
    "mandatory": "No",
    "role": null
   },
   "RFENDTC": {
    "label": "Subject Reference End Date/Time",
    "type": "String",
    "mandatory": "No",
    "role": null
   },
   "RFXSTDTC": {
    "label": "Date/Time of First Study Treatment",
    "type": "String",
    "mandatory": "No",
    "role": null
   },
   "RFXENDTC": {
    "label": "Date/Time of Last Study Treatment",
    "type": "String",
    "mandatory": "No",
    "role": null
   },
   "RFPENDTC": {
    "label": "Date/Time of End of Participation",
    "type": "String",
    "mandatory": "No",
    "role": null
   },
   "SCRFDT": {
    "label": "Screen Failure Date",
    "type": "Date",
    "mandatory": "No",
    "role": null
   },
   "FRVDT": {
    "label": "Final Retrieval Visit Date",
    "type": "Date",
    "mandatory": "No",
    "role": null
   },
   "DTHDTC": {
    "label": "Date/Time of Death",
    "type": "String",
    "mandatory": "No",
    "role": null
   },
   "DTHADY": {
    "label": "Relative Day of Death",
    "type": "Float64",
    "mandatory": "No",
    "role": null
   },
   "DTHFL": {
    "label": "Subject Death Flag",
    "type": "String",
    "mandatory": "No",
    "role": null
   },
   "LDDTHELD": {
    "label": "Elapsed Days from Last Dose to Death",
    "type": "Float64",
    "mandatory": "No",
    "role": null
   },
   "LDDTHGR1": {
    "label": "Last Dose to Death - Days Elapsed Grp 1",
    "type": "String",
    "mandatory": "No",
    "role": null
   },
   "DTH30FL": {
    "label": "Death Within 30 Days of Last Trt Flag",
    "type": "String",
    "mandatory": "No",
    "role": null
   },
   "DTHA30FL": {
    "label": "Death After 30 Days from Last Trt Flag",
    "type": "String",
    "mandatory": "No",
    "role": null
   },
   "DTHDOM": {
    "label": "Domain for Date of Death Collection",
    "type": "String",
    "mandatory": "No",
    "role": null
   },
   "DTHB30FL": {
    "label": "Death Within 30 Days of First Trt Flag",
    "type": "String",
    "mandatory": "No",
    "role": null
   },
   "ASEQ": {
    "label": "Analysis Sequence Number",
    "type": "Int32",
    "mandatory": "No",
    "role": "Identifier Variables for BDS Datasets"
   },
   "REGION1": {
    "label": "Geographic Region 1",
    "type": "String",
    "mandatory": "No",
    "role": null
   },
   "DMDTC": {
    "label": "Date/Time of Collection",
    "type": "String",
    "mandatory": "No",
    "role": null
   },
   "DMDY": {
    "label": "Study Day of Collection",
    "type": "Float64",
    "mandatory": "No",
    "role": null
   },
   "AGE": {
    "label": "Age",
    "type": "Float64",
    "mandatory": "No",
    "role": "ADSL Subject Demographics Variables"
   },
   "AGEU": {
    "label": "Age Units",
    "type": "String",
    "mandatory": "No",
    "role": "ADSL Subject Demographics Variables"
   },
   "AGEGR1": {
    "label": "Pooled Age Group 1",
    "type": "String",
    "mandatory": "No",
    "role": null
   },
   "SEX": {
    "label": "Sex",
    "type": "String",
    "mandatory": "No",
    "role": "ADSL Subject Demographics Variables"
   },
   "RACE": {
    "label": "Race",
    "type": "String",
    "mandatory": "No",
    "role": "ADSL Subject Demographics Variables"
   },
   "RACEGR1": {
    "label": "Pooled Race Group 1",
    "type": "String",
    "mandatory": "No",
    "role": null
   },
   "ETHNIC": {
    "label": "Ethnicity",
    "type": "String",
    "mandatory": "No",
    "role": null
   },
   "SAFFL": {
    "label": "Safety Population Flag",
    "type": "String",
    "mandatory": "No",
    "role": "ADSL Population Indicator Variables"
   },
   "ARM": {
    "label": "Description of Planned Arm",
    "type": "String",
    "mandatory": "No",
    "role": "ADSL Treatment Variables"
   },
   "ARMCD": {
    "label": "Planned Arm Code",
    "type": "String",
    "mandatory": "No",
    "role": null
   },
   "ACTARM": {
    "label": "Description of Actual Arm",
    "type": "String",
    "mandatory": "No",
    "role": "ADSL Treatment Variables"
   },
   "ACTARMCD": {
    "label": "Actual Arm Code",
    "type": "String",
    "mandatory": "No",
    "role": null
   },
   "TRT01P": {
    "label": "Planned Treatment for Period 01",
    "type": "String",
    "mandatory": "No",
    "role": null
   },
   "TRT01A": {
    "label": "Actual Treatment for Period 01",
    "type": "String",
    "mandatory": "No",
    "role": null
   },
   "TRTSDT": {
    "label": "Date of First Exposure to Treatment",
    "type": "Date",
    "mandatory": "No",
    "role": "ADSL Treatment Timing Variables"
   },
   "TRTSDTM": {
    "label": "Datetime of First Exposure to Treatment",
    "type": "Datetime",
    "mandatory": "No",
    "role": "ADSL Treatment Timing Variables"
   },
   "TRTSTMF": {
    "label": "Time of First Exposure Imput. Flag",
    "type": "String",
    "mandatory": "No",
    "role": "ADSL Treatment Timing Variables"
   },
   "TRTEDT": {
    "label": "Date of Last Exposure to Treatment",
    "type": "Date",
    "mandatory": "No",
    "role": "ADSL Treatment Timing Variables"
   },
   "TRTEDTM": {
    "label": "Datetime of Last Exposure to Treatment",
    "type": "Datetime",
    "mandatory": "No",
    "role": "ADSL Treatment Timing Variables"
   },
   "TRTETMF": {
    "label": "Time of Last Exposure Imput. Flag",
    "type": "String",
    "mandatory": "No",
    "role": "ADSL Treatment Timing Variables"
   },
   "EOSSTT": {
    "label": "End of Study Status",
    "type": "String",
    "mandatory": "No",
    "role": "ADSL Subject-Level Trial Experience Variables"
   },
   "EOSDT": {
    "label": "End of Study Date",
    "type": "Date",
    "mandatory": "No",
    "role": "ADSL Subject-Level Trial Experience Variables"
   },
   "RFICDTC": {
    "label": "Date/Time of Informed Consent",
    "type": "String",
    "mandatory": "No",
    "role": null
   },
   "RANDDT": {
    "label": "Date of Randomization",
    "type": "Date",
    "mandatory": "No",
    "role": "ADSL Subject-Level Trial Experience Variables"
   },
   "LSTALVDT": {
    "label": "Date Last Known Alive",
    "type": "Date",
    "mandatory": "No",
    "role": "ADSL Subject-Level Trial Experience Variables"
   },
   "TRTDURD": {
    "label": "Total Treatment Duration (Days)",
    "type": "Float64",
    "mandatory": "No",
    "role": "ADSL Subject-Level Trial Experience Variables"
   },
   "DTHDT": {
    "label": "Date of Death",
    "type": "Date",
    "mandatory": "No",
    "role": "ADSL Subject-Level Trial Experience Variables"
   },
   "DTHDTF": {
    "label": "Date of Death Imputation Flag",
    "type": "String",
    "mandatory": "No",
    "role": "ADSL Subject-Level Trial Experience Variables"
   },
   "DTHCAUS": {
    "label": "Cause of Death",
    "type": "String",
    "mandatory": "No",
    "role": null
   },
   "DTHCGR1": {
    "label": "Cause of Death Reason 1",
    "type": "String",
    "mandatory": "No",
    "role": null
   },
   "ADT": {
    "label": "Analysis Date",
    "type": "Date",
    "mandatory": "No",
    "role": "Timing Variables for BDS Datasets"
   },
   "ADY": {
    "label": "Analysis Relative Day",
    "type": "Float64",
    "mandatory": "No",
    "role": "Timing Variables for BDS Datasets"
   },
   "AVISIT": {
    "label": "Analysis Visit",
    "type": "String",
    "mandatory": "No",
    "role": "Timing Variables for BDS Datasets"
   },
   "AVISITN": {
    "label": "Analysis Visit (N)",
    "type": "Float64",
    "mandatory": "No",
    "role": "Timing Variables for BDS Datasets"
   },
   "ATPT": {
    "label": "Analysis Timepoint",
    "type": "String",
    "mandatory": "No",
    "role": "Timing Variables for BDS Datasets"
   },
   "ATPTN": {
    "label": "Analysis Timepoint (N)",
    "type": "Float64",
    "mandatory": "No",
    "role": "Timing Variables for BDS Datasets"
   },
   "PARAM": {
    "label": "Parameter",
    "type": "String",
    "mandatory": "Yes",
    "role": "Analysis Parameter Variables for BDS Datasets"
   },
   "PARAMCD": {
    "label": "Parameter Code",
    "type": "String",
    "mandatory": "Yes",
    "role": "Analysis Parameter Variables for BDS Datasets"
   },
   "PARAMN": {
    "label": "Parameter (N)",
    "type": "Float64",
    "mandatory": "No",
    "role": null
   },
   "AVAL": {
    "label": "Analysis Value",
    "type": "Float64",
    "mandatory": "No",
    "role": "Analysis Parameter Variables for BDS Datasets"
   },
   "AVALC": {
    "label": "Analysis Value (C)",
    "type": "String",
    "mandatory": "No",
    "role": "Analysis Parameter Variables for BDS Datasets"
   },
   "AVALU": {
    "label": "Analysis Value Unit",
    "type": "String",
    "mandatory": "No",
    "role": null
   },
   "BASE": {
    "label": "Baseline Value",
    "type": "Float64",
    "mandatory": "No",
    "role": "Analysis Parameter Variables for BDS Datasets"
   },
   "BASEC": {
    "label": "Baseline Value (C)",
    "type": "String",
    "mandatory": "No",
    "role": "Analysis Parameter Variables for BDS Datasets"
   },
   "BASETYPE": {
    "label": "Baseline Type",
    "type": "String",
    "mandatory": "No",
    "role": "Analysis Parameter Variables for BDS Datasets"
   },
   "CHG": {
    "label": "Change from Baseline",
    "type": "Float64",
    "mandatory": "No",
    "role": "Analysis Parameter Variables for BDS Datasets"
   },
   "PCHG": {
    "label": "Percent Change from Baseline",
    "type": "Float64",
    "mandatory": "No",
    "role": "Analysis Parameter Variables for BDS Datasets"
   },
   "DTYPE": {
    "label": "Derivation Type",
    "type": "String",
    "mandatory": "No",
    "role": "Analysis Descriptor Variables for BDS Datasets"
   },
   "ABLFL": {
    "label": "Baseline Record Flag",
    "type": "String",
    "mandatory": "No",
    "role": "Flag Variables for BDS Datasets"
   },
   "ANL01FL": {
    "label": "Analysis Flag 01",
    "type": "String",
    "mandatory": "No",
    "role": null
   },
   "ANL02FL": {
    "label": "Analysis Flag 02",
    "type": "String",
    "mandatory": "No",
    "role": null
   },
   "ONTRTFL": {
    "label": "On Treatment Record Flag",
    "type": "String",
    "mandatory": "No",
    "role": "Flag Variables for BDS Datasets"
   },
   "OESEQ": {
    "label": "Sequence Number",
    "type": "Int32",
    "mandatory": "No",
    "role": null
   },
   "OECAT": {
    "label": "Category for Ophthalmic Test or Exam",
    "type": "String",
    "mandatory": "No",
    "role": null
   },
   "OESCAT": {
    "label": "Subcategory for Ophthalmic Test or Exam",
    "type": "String",
    "mandatory": "No",
    "role": null
   },
   "OEDTC": {
    "label": "Date/Time of Collection",
    "type": "String",
    "mandatory": "No",
    "role": null
   },
   "VISIT": {
    "label": "Visit Name",
    "type": "String",
    "mandatory": "No",
    "role": null
   },
   "VISITNUM": {
    "label": "Visit Number",
    "type": "Float64",
    "mandatory": "No",
    "role": null
   },
   "VISITDY": {
    "label": "Planned Study Day of Visit",
    "type": "Float64",
    "mandatory": "No",
    "role": null
   },
   "OESTRESN": {
    "label": "Numeric Result/Finding in Standard Units",
    "type": "Float64",
    "mandatory": "No",
    "role": null
   },
   "OESTRESC": {
    "label": "Character Result/Finding in Std Format",
    "type": "String",
    "mandatory": "No",
    "role": null
   },
   "OEORRES": {
    "label": "Result or Finding in Original Units",
    "type": "String",
    "mandatory": "No",
    "role": null
   },
   "OETEST": {
    "label": "Name of Ophthalmic Test or Exam",
    "type": "String",
    "mandatory": "No",
    "role": null
   },
   "OETESTCD": {
    "label": "Short Name of Ophthalmic Test or Exam",
    "type": "String",
    "mandatory": "No",
    "role": null
   },
   "OETSTDTL": {
    "label": "Ophthalmic Test or Exam Detail",
    "type": "String",
    "mandatory": "No",
    "role": null
   },
   "OELAT": {
    "label": "Laterality",
    "type": "String",
    "mandatory": "No",
    "role": null
   },
   "OELOC": {
    "label": "Location Used for the Measurement",
    "type": "String",
    "mandatory": "No",
    "role": null
   },
   "OEDY": {
    "label": "Study Day of Visit/Collection/Exam",
    "type": "Float64",
    "mandatory": "No",
    "role": null
   },
   "OEMETHOD": {
    "label": "Method of Test or Examination",
    "type": "String",
    "mandatory": "No",
    "role": null
   },
   "OEORRESU": {
    "label": "Original Units",
    "type": "String",
    "mandatory": "No",
    "role": null
   },
   "OESTRESU": {
    "label": "Standard Units",
    "type": "String",
    "mandatory": "No",
    "role": null
   },
   "OESTAT": {
    "label": "Completion Status",
    "type": "String",
    "mandatory": "No",
    "role": null
   },
   "OETPT": {
    "label": "Planned Time Point Name",
    "type": "String",
    "mandatory": "No",
    "role": null
   },
   "OETPTNUM": {
    "label": "Planned Time Point Number",
    "type": "Float64",
    "mandatory": "No",
    "role": null
   },
   "STUDYEYE": {
    "label": "Study Eye Location",
    "type": "String",
    "mandatory": "No",
    "role": null
   },
   "AFEYE": {
    "label": "Affected Eye",
    "type": "String",
    "mandatory": "No",
    "role": null
   },
   "WORS01FL": {
    "label": "Worst Post Baseline Obs",
    "type": "String",
    "mandatory": "No",
    "role": null
   }
  }
 },
 "adpc": {
  "label": "Pharmacokinetic Concentrations",
  "structure": "One or more records per subject per analysis parameter per analysis timepoint",
  "n_rows": 4479,
  "columns": {
   "STUDYID": {
    "label": "Study Identifier",
    "type": "String",
    "mandatory": "Yes",
    "role": "Identifier Variables for BDS Datasets"
   },
   "USUBJID": {
    "label": "Unique Subject Identifier",
    "type": "String",
    "mandatory": "Yes",
    "role": "Identifier Variables for BDS Datasets"
   },
   "SUBJID": {
    "label": "Subject Identifier for the Study",
    "type": "String",
    "mandatory": "No",
    "role": "Identifier Variables for BDS Datasets"
   },
   "SITEID": {
    "label": "Study Site Identifier",
    "type": "String",
    "mandatory": "No",
    "role": "Identifier Variables for BDS Datasets"
   },
   "COUNTRY": {
    "label": "Country",
    "type": "String",
    "mandatory": "No",
    "role": null
   },
   "RFSTDTC": {
    "label": "Subject Reference Start Date/Time",
    "type": "String",
    "mandatory": "No",
    "role": null
   },
   "RFENDTC": {
    "label": "Subject Reference End Date/Time",
    "type": "String",
    "mandatory": "No",
    "role": null
   },
   "RFXSTDTC": {
    "label": "Date/Time of First Study Treatment",
    "type": "String",
    "mandatory": "No",
    "role": null
   },
   "RFXENDTC": {
    "label": "Date/Time of Last Study Treatment",
    "type": "String",
    "mandatory": "No",
    "role": null
   },
   "RFPENDTC": {
    "label": "Date/Time of End of Participation",
    "type": "String",
    "mandatory": "No",
    "role": null
   },
   "SCRFDT": {
    "label": "Screen Failure Date",
    "type": "Date",
    "mandatory": "No",
    "role": null
   },
   "FRVDT": {
    "label": "Final Retrieval Visit Date",
    "type": "Date",
    "mandatory": "No",
    "role": null
   },
   "DTHDTC": {
    "label": "Date/Time of Death",
    "type": "String",
    "mandatory": "No",
    "role": null
   },
   "DTHADY": {
    "label": "Relative Day of Death",
    "type": "Float64",
    "mandatory": "No",
    "role": null
   },
   "DTHFL": {
    "label": "Subject Death Flag",
    "type": "String",
    "mandatory": "No",
    "role": null
   },
   "LDDTHELD": {
    "label": "Elapsed Days from Last Dose to Death",
    "type": "Float64",
    "mandatory": "No",
    "role": null
   },
   "LDDTHGR1": {
    "label": "Last Dose to Death - Days Elapsed Grp 1",
    "type": "String",
    "mandatory": "No",
    "role": null
   },
   "DTH30FL": {
    "label": "Under 30  Group",
    "type": "String",
    "mandatory": "No",
    "role": null
   },
   "DTHA30FL": {
    "label": "Over 30  Group",
    "type": "String",
    "mandatory": "No",
    "role": null
   },
   "DTHDOM": {
    "label": "Domain for Date of Death Collection",
    "type": "String",
    "mandatory": "No",
    "role": null
   },
   "DTHB30FL": {
    "label": "Over 30 plus 30 days Group",
    "type": "String",
    "mandatory": "No",
    "role": null
   },
   "ASEQ": {
    "label": "Analysis Sequence Number",
    "type": "Int32",
    "mandatory": "No",
    "role": "Identifier Variables for BDS Datasets"
   },
   "REGION1": {
    "label": "Geographic Region 1",
    "type": "String",
    "mandatory": "No",
    "role": null
   },
   "DMDTC": {
    "label": "Date/Time of Collection",
    "type": "String",
    "mandatory": "No",
    "role": null
   },
   "DMDY": {
    "label": "Study Day of Collection",
    "type": "Float64",
    "mandatory": "No",
    "role": null
   },
   "AGE": {
    "label": "Age",
    "type": "Float64",
    "mandatory": "No",
    "role": "ADSL Subject Demographics Variables"
   },
   "AGEU": {
    "label": "Age Units",
    "type": "String",
    "mandatory": "No",
    "role": "ADSL Subject Demographics Variables"
   },
   "AGEGR1": {
    "label": "Pooled Age Group 1",
    "type": "String",
    "mandatory": "No",
    "role": null
   },
   "SEX": {
    "label": "Sex",
    "type": "String",
    "mandatory": "No",
    "role": "ADSL Subject Demographics Variables"
   },
   "RACE": {
    "label": "Race",
    "type": "String",
    "mandatory": "No",
    "role": "ADSL Subject Demographics Variables"
   },
   "RACEGR1": {
    "label": "Pooled Race Group 1",
    "type": "String",
    "mandatory": "No",
    "role": null
   },
   "ETHNIC": {
    "label": "Ethnicity",
    "type": "String",
    "mandatory": "No",
    "role": null
   },
   "SAFFL": {
    "label": "Safety Population Flag",
    "type": "String",
    "mandatory": "No",
    "role": "ADSL Population Indicator Variables"
   },
   "ARM": {
    "label": "Description of Planned Arm",
    "type": "String",
    "mandatory": "No",
    "role": "ADSL Treatment Variables"
   },
   "ARMCD": {
    "label": "Planned Arm Code",
    "type": "String",
    "mandatory": "No",
    "role": null
   },
   "ACTARM": {
    "label": "Description of Actual Arm",
    "type": "String",
    "mandatory": "No",
    "role": "ADSL Treatment Variables"
   },
   "ACTARMCD": {
    "label": "Actual Arm Code",
    "type": "String",
    "mandatory": "No",
    "role": null
   },
   "TRT01P": {
    "label": "Planned Treatment for Period 01",
    "type": "String",
    "mandatory": "No",
    "role": null
   },
   "TRT01A": {
    "label": "Actual Treatment for Period 01",
    "type": "String",
    "mandatory": "No",
    "role": null
   },
   "TRTSDT": {
    "label": "Date of First Exposure to Treatment",
    "type": "Date",
    "mandatory": "No",
    "role": "ADSL Treatment Timing Variables"
   },
   "TRTSDTM": {
    "label": "Datetime of First Exposure to Treatment",
    "type": "Datetime",
    "mandatory": "No",
    "role": "ADSL Treatment Timing Variables"
   },
   "TRTSTMF": {
    "label": "Time of First Exposure Imput. Flag",
    "type": "String",
    "mandatory": "No",
    "role": "ADSL Treatment Timing Variables"
   },
   "TRTEDT": {
    "label": "Date of Last Exposure to Treatment",
    "type": "Date",
    "mandatory": "No",
    "role": "ADSL Treatment Timing Variables"
   },
   "TRTEDTM": {
    "label": "Datetime of Last Exposure to Treatment",
    "type": "Datetime",
    "mandatory": "No",
    "role": "ADSL Treatment Timing Variables"
   },
   "TRTETMF": {
    "label": "Time of Last Exposure Imput. Flag",
    "type": "String",
    "mandatory": "No",
    "role": "ADSL Treatment Timing Variables"
   },
   "EOSSTT": {
    "label": "End of Study Status",
    "type": "String",
    "mandatory": "No",
    "role": "ADSL Subject-Level Trial Experience Variables"
   },
   "EOSDT": {
    "label": "End of Study Date",
    "type": "Date",
    "mandatory": "No",
    "role": "ADSL Subject-Level Trial Experience Variables"
   },
   "RFICDTC": {
    "label": "Date/Time of Informed Consent",
    "type": "String",
    "mandatory": "No",
    "role": null
   },
   "RANDDT": {
    "label": "Date of Randomization",
    "type": "Date",
    "mandatory": "No",
    "role": "ADSL Subject-Level Trial Experience Variables"
   },
   "LSTALVDT": {
    "label": "Date Last Known Alive",
    "type": "Date",
    "mandatory": "No",
    "role": "ADSL Subject-Level Trial Experience Variables"
   },
   "TRTDURD": {
    "label": "Total Treatment Duration (Days)",
    "type": "Float64",
    "mandatory": "No",
    "role": "ADSL Subject-Level Trial Experience Variables"
   },
   "DTHDT": {
    "label": "Date of Death",
    "type": "Date",
    "mandatory": "No",
    "role": "ADSL Subject-Level Trial Experience Variables"
   },
   "DTHDTF": {
    "label": "Date of Death Imputation Flag",
    "type": "String",
    "mandatory": "No",
    "role": "ADSL Subject-Level Trial Experience Variables"
   },
   "DTHCAUS": {
    "label": "Cause of Death",
    "type": "String",
    "mandatory": "No",
    "role": null
   },
   "DTHCGR1": {
    "label": "Cause of Death Reason 1",
    "type": "String",
    "mandatory": "No",
    "role": null
   },
   "DOSEP": {
    "label": "Planned Treatment Dose",
    "type": "Float64",
    "mandatory": "No",
    "role": "Record-Level Dose Variables for BDS Datasets"
   },
   "DOSEA": {
    "label": "Actual Treatment Dose",
    "type": "Float64",
    "mandatory": "No",
    "role": "Record-Level Dose Variables for BDS Datasets"
   },
   "DOSEU": {
    "label": "Treatment Dose Units",
    "type": "String",
    "mandatory": "No",
    "role": "Record-Level Dose Variables for BDS Datasets"
   },
   "ADT": {
    "label": "Analysis Date",
    "type": "Date",
    "mandatory": "No",
    "role": "Timing Variables for BDS Datasets"
   },
   "ATM": {
    "label": "Analysis Time",
    "type": "Time",
    "mandatory": "No",
    "role": "Timing Variables for BDS Datasets"
   },
   "ADTM": {
    "label": "Analysis Datetime",
    "type": "Datetime",
    "mandatory": "No",
    "role": "Timing Variables for BDS Datasets"
   },
   "ADY": {
    "label": "Analysis Relative Day",
    "type": "Float64",
    "mandatory": "No",
    "role": "Timing Variables for BDS Datasets"
   },
   "ATMF": {
    "label": "Analysis Time Imputation Flag",
    "type": "String",
    "mandatory": "No",
    "role": "Timing Variables for BDS Datasets"
   },
   "ASTDT": {
    "label": "Analysis Start Date",
    "type": "Date",
    "mandatory": "No",
    "role": "Timing Variables for BDS Datasets"
   },
   "ASTTM": {
    "label": "Analysis Start Time",
    "type": "Time",
    "mandatory": "No",
    "role": "Timing Variables for BDS Datasets"
   },
   "ASTDTM": {
    "label": "Analysis Start Datetime",
    "type": "Datetime",
    "mandatory": "No",
    "role": "Timing Variables for BDS Datasets"
   },
   "AENDT": {
    "label": "Analysis End Date",
    "type": "Date",
    "mandatory": "No",
    "role": "Timing Variables for BDS Datasets"
   },
   "AENTM": {
    "label": "Analysis End Time",
    "type": "Time",
    "mandatory": "No",
    "role": "Timing Variables for BDS Datasets"
   },
   "AENDTM": {
    "label": "Analysis End Datetime",
    "type": "Datetime",
    "mandatory": "No",
    "role": "Timing Variables for BDS Datasets"
   },
   "AVISIT": {
    "label": "Analysis Visit",
    "type": "String",
    "mandatory": "No",
    "role": "Timing Variables for BDS Datasets"
   },
   "AVISITN": {
    "label": "Analysis Visit (N)",
    "type": "Float64",
    "mandatory": "No",
    "role": "Timing Variables for BDS Datasets"
   },
   "ATPT": {
    "label": "Analysis Timepoint",
    "type": "String",
    "mandatory": "No",
    "role": "Timing Variables for BDS Datasets"
   },
   "ATPTN": {
    "label": "Analysis Timepoint (N)",
    "type": "Float64",
    "mandatory": "No",
    "role": "Timing Variables for BDS Datasets"
   },
   "ATPTREF": {
    "label": "Analysis Timepoint Reference",
    "type": "String",
    "mandatory": "No",
    "role": "Timing Variables for BDS Datasets"
   },
   "PARAM": {
    "label": "Parameter",
    "type": "String",
    "mandatory": "Yes",
    "role": "Analysis Parameter Variables for BDS Datasets"
   },
   "PARAMCD": {
    "label": "Parameter Code",
    "type": "String",
    "mandatory": "Yes",
    "role": "Analysis Parameter Variables for BDS Datasets"
   },
   "PARAMN": {
    "label": "Parameter (N)",
    "type": "Float64",
    "mandatory": "No",
    "role": "Analysis Parameter Variables for BDS Datasets"
   },
   "PARCAT1": {
    "label": "Parameter Category 1",
    "type": "String",
    "mandatory": "No",
    "role": null
   },
   "AVAL": {
    "label": "Analysis Value",
    "type": "Float64",
    "mandatory": "No",
    "role": "Analysis Parameter Variables for BDS Datasets"
   },
   "AVALU": {
    "label": "Analysis Value Unit",
    "type": "String",
    "mandatory": "No",
    "role": null
   },
   "AVALCAT1": {
    "label": "Analysis Value Category 1",
    "type": "String",
    "mandatory": "No",
    "role": null
   },
   "BASE": {
    "label": "Baseline Value",
    "type": "Float64",
    "mandatory": "No",
    "role": "Analysis Parameter Variables for BDS Datasets"
   },
   "BASETYPE": {
    "label": "Baseline Type",
    "type": "String",
    "mandatory": "No",
    "role": "Analysis Parameter Variables for BDS Datasets"
   },
   "CHG": {
    "label": "Change from Baseline",
    "type": "Float64",
    "mandatory": "No",
    "role": "Analysis Parameter Variables for BDS Datasets"
   },
   "DTYPE": {
    "label": "Derivation Type",
    "type": "String",
    "mandatory": "No",
    "role": "Analysis Descriptor Variables for BDS Datasets"
   },
   "ABLFL": {
    "label": "Baseline Record Flag",
    "type": "String",
    "mandatory": "No",
    "role": "Flag Variables for BDS Datasets"
   },
   "ANL01FL": {
    "label": "Analysis Flag 01",
    "type": "String",
    "mandatory": "No",
    "role": null
   },
   "ANL02FL": {
    "label": "Analysis Flag 02",
    "type": "String",
    "mandatory": "No",
    "role": null
   },
   "SRCDOM": {
    "label": "Source Data",
    "type": "String",
    "mandatory": "No",
    "role": "Datapoint Traceability Variables"
   },
   "SRCVAR": {
    "label": "Source Variable",
    "type": "String",
    "mandatory": "No",
    "role": "Datapoint Traceability Variables"
   },
   "SRCSEQ": {
